,timestamp_start,timestamp_end,acc.x,acc.y,acc.z,gyro.x,gyro.y,gyro.z,mag.x,mag.y,mag.z,stabilizer.pitch,stabilizer.roll,stabilizer.yaw
0,101479,101480,-0.08743986487388611,-0.10824628919363022,1.0277503728866577,-41.368370056152344,-39.873207092285156,0.7295066714286804,1.619918942451477,2.435878276824951,4.346782684326172,0.09282087534666061,1.0407778024673462,4.499602794647217
1,101489,101490,-0.10476931929588318,-0.12432441860437393,1.0577917098999023,-52.96513748168945,-23.80437469482422,-0.2278335988521576,1.6319184303283691,2.4598770141601562,4.367781639099121,0.4536767601966858,0.6297580599784851,4.496049404144287
2,101499,101500,-0.15283003449440002,-0.09112312644720078,1.0626171827316284,-69.00523376464844,-4.664090156555176,-3.088975667953491,1.6244187355041504,2.4763760566711426,4.378281116485596,0.8157897591590881,-0.06705822795629501,4.538029193878174
3,101509,101510,-0.1579383760690689,-0.09988052397966385,1.0402841567993164,-76.66988372802734,11.96403980255127,-6.589206218719482,1.6274186372756958,2.49137544631958,4.384280681610107,0.6721391081809998,-0.4480481743812561,4.420544624328613
4,101519,101520,-0.09015868604183197,-0.08697247505187988,1.046044945716858,-66.19700622558594,24.280961990356445,-8.183782577514648,1.6169191598892212,2.492875337600708,4.376780986785889,0.4335416555404663,-1.5167138576507568,4.393182754516602
5,101529,101530,-0.023184040561318398,-0.049997199326753616,1.0499006509780884,-43.255615234375,34.90635681152344,-10.697463989257812,1.619918942451477,2.4808759689331055,4.367781639099121,0.21684756875038147,-2.0092146396636963,4.272165298461914
6,101539,101540,-0.034360215067863464,0.007522572297602892,1.1046037673950195,-11.517040252685547,39.87333297729492,-11.4343843460083,1.61091947555542,2.4568769931793213,4.367781639099121,-0.3714904189109802,-2.5033323764801025,4.151198387145996
7,101549,101550,-0.09790237993001938,-0.01349353976547718,1.1627895832061768,31.20368194580078,36.434749603271484,-11.03468132019043,1.6064196825027466,2.443377733230591,4.366281509399414,-0.6642467379570007,-2.3917396068573,3.9796981811523438
8,101559,101560,-0.13556401431560516,-0.10450063645839691,1.116115689277649,73.04545593261719,18.253761291503906,-5.885417938232422,1.595920205116272,2.4598770141601562,4.349782466888428,-0.8477680087089539,-1.7324633598327637,3.791614055633545
9,101569,101570,-0.16395708918571472,-0.11014001816511154,1.0863395929336548,87.71416473388672,-3.34271502494812,-0.4729815423488617,1.6019198894500732,2.468876600265503,4.373781204223633,-1.0690480470657349,-1.1264952421188354,3.7518789768218994
10,101579,101580,-0.11772207915782928,-0.10931733250617981,1.0372308492660522,68.3971176147461,-21.32497787475586,1.6137566566467285,1.6259186267852783,2.4538772106170654,4.373781204223633,-0.8829864263534546,-0.38975390791893005,3.7544586658477783
11,101589,101590,-0.06941651552915573,-0.09032771736383438,0.9758313298225403,27.874547958374023,-37.33546829223633,-1.0477389097213745,1.6229188442230225,2.4238786697387695,4.361781597137451,-0.47139987349510193,0.15263420343399048,3.772205352783203
12,101599,101600,-0.09063642472028732,-0.07732474058866501,0.9680771827697754,-1.9322112798690796,-30.72652816772461,-4.206225395202637,1.6229188442230225,2.4058797359466553,4.346782684326172,-0.17089694738388062,0.43586987257003784,3.763660192489624
13,101609,101610,-0.15113523602485657,-0.10713251680135727,0.9470975995063782,-22.017019271850586,-9.673574447631836,-6.466706275939941,1.6289185285568237,2.387880563735962,4.34078311920166,0.16818533837795258,0.3427448868751526,3.727874279022217
14,101619,101620,-0.15252481400966644,-0.08174830675125122,0.9721747040748596,-28.7928466796875,11.340631484985352,-7.693551540374756,1.6124193668365479,2.38938045501709,4.324283599853516,0.23081417381763458,-0.01123721431940794,3.6884756088256836
15,101629,101630,-0.06008907034993172,-0.03548338636755943,0.9669516682624817,-28.012048721313477,25.775949478149414,-8.017316818237305,1.6229188442230225,2.3968801498413086,4.337782859802246,-0.013729262165725231,-0.4418323338031769,3.643209934234619
16,101639,101640,-0.005829449277371168,-0.002922779880464077,0.9353354573249817,-17.319805145263672,30.483335494995117,-8.116279602050781,1.6184190511703491,2.413379192352295,4.339282989501953,-0.1717662364244461,-0.7406061887741089,3.5607705116271973
17,101649,101650,-0.031351424753665924,0.016412213444709778,0.956566333770752,2.936082124710083,21.306068420410156,-6.167963981628418,1.6139192581176758,2.387880563735962,4.34078311920166,-0.23502473533153534,-0.6873616576194763,3.4284732341766357
18,101659,101660,-0.078802689909935,-0.0028379729483276606,0.9799578785896301,24.844348907470703,7.914984703063965,-3.262695074081421,1.619918942451477,2.3758811950683594,4.331783294677734,-0.48985782265663147,-0.5320824980735779,3.3483810424804688
19,101669,101670,-0.14651434123516083,-0.03861211985349655,1.020990252494812,38.571380615234375,3.9308712482452393,-1.0354228019714355,1.6094194650650024,2.3953802585601807,4.333283424377441,-0.6454931497573853,-0.5309059619903564,3.3602514266967773
20,101679,101680,-0.15995512902736664,-0.020524848252534866,1.00203275680542,35.78155517578125,-4.9167680740356445,-1.6525285243988037,1.619918942451477,2.3968801498413086,4.343782901763916,-0.6986719369888306,-0.022400042042136192,3.327549457550049
21,101689,101690,-0.11915995925664902,0.034127525985240936,0.9278072714805603,28.52065658569336,-13.786781311035156,-3.6983227729797363,1.6244187355041504,2.38938045501709,4.336283206939697,-0.45454227924346924,0.219890758395195,3.312709331512451
22,101699,101700,-0.03372883424162865,0.08237042278051376,0.8896297812461853,19.475318908691406,-21.131914138793945,-6.650477409362793,1.6184190511703491,2.380380868911743,4.309284687042236,-0.23616617918014526,0.4923638105392456,3.2725257873535156
23,101709,101710,0.013947193510830402,0.09661310166120529,0.9204493165016174,8.174792289733887,-21.565887451171875,-14.020269393920898,1.61091947555542,2.3668816089630127,4.325783729553223,0.002667896682396531,0.5413131713867188,3.2211148738861084
24,101719,101720,-0.02280191332101822,-0.021183904260396957,0.9562058448791504,3.8140013217926025,-8.6950101852417,-20.48929214477539,1.6139192581176758,2.3668816089630127,4.316783905029297,0.1793733835220337,0.7138223648071289,3.0672972202301025
25,101729,101730,-0.09394990652799606,-0.13626627624034882,0.9681167006492615,2.7957425117492676,5.8193254470825195,-25.864233016967773,1.6124193668365479,2.3683815002441406,4.32128381729126,0.3478316068649292,0.8082789182662964,2.850081205368042
26,101739,101740,-0.12704406678676605,-0.1406581699848175,0.884010374546051,2.3743233680725098,16.18215560913086,-29.62601661682129,1.6154191493988037,2.3683815002441406,4.324283599853516,0.18336740136146545,0.8260211944580078,2.5959739685058594
27,101749,101750,-0.10844108462333679,-0.04642677679657936,0.8758885860443115,1.7846282720565796,22.21186637878418,-31.765531539916992,1.5974200963974,2.359381914138794,4.324283599853516,0.1949222981929779,0.9647640585899353,2.283806324005127
28,101759,101760,-0.1678561270236969,-0.06115276366472244,0.9295244812965393,4.4849677085876465,29.830581665039062,-31.2970027923584,1.6034197807312012,2.3743813037872314,4.32128381729126,-0.25525686144828796,0.89671790599823,1.982985496520996
29,101769,101770,-0.14547580480575562,-0.08042281121015549,0.9563663601875305,6.6374006271362305,39.93483352661133,-30.9648494720459,1.6079195737838745,2.3728814125061035,4.319784164428711,-0.41185393929481506,0.7437674403190613,1.7135772705078125
30,101779,101780,-0.09079816937446594,-0.07219875603914261,0.9244592189788818,7.642917633056641,37.319374084472656,-30.51543426513672,1.5989199876785278,2.387880563735962,4.343782901763916,-0.82737797498703,0.8391051292419434,1.4047659635543823
31,101789,101790,-0.068203404545784,-0.11257051676511765,0.8917001485824585,4.362205982208252,34.49213409423828,-28.39380645751953,1.6139192581176758,2.3698813915252686,4.316783905029297,-1.1284208297729492,0.9838457703590393,1.1008429527282715
32,101799,101800,-0.019994037225842476,-0.09543583542108536,0.8494739532470703,2.6524910926818848,39.369571685791016,-25.682266235351562,1.6034197807312012,2.3683815002441406,4.312284469604492,-1.608396053314209,1.0800399780273438,0.8090890645980835
33,101809,101810,0.03252334147691727,-0.02846536785364151,0.8133384585380554,-0.8685615062713623,34.11189270019531,-21.845989227294922,1.6034197807312012,2.356382131576538,4.318284034729004,-1.9918092489242554,1.0707439184188843,0.5641996264457703
34,101819,101820,-0.027620641514658928,-0.0020882561802864075,0.8131487965583801,-2.1351397037506104,24.20128631591797,-15.705682754516602,1.5989199876785278,2.3668816089630127,4.307784557342529,-2.286076307296753,1.0083692073822021,0.3632260859012604
35,101829,101830,-0.07257077097892761,-0.019567230716347694,0.8123452067375183,-4.096439838409424,14.664824485778809,-13.111075401306152,1.5899205207824707,2.3728814125061035,4.310784339904785,-2.5467514991760254,0.9878293871879578,0.20579464733600616
36,101839,101840,-0.08411046117544174,0.00048721395432949066,0.8442088961601257,-6.999853610992432,0.9694489240646362,-11.721284866333008,1.604919672012329,2.384880781173706,4.325783729553223,-2.566431999206543,0.9233497381210327,0.08835772424936295
37,101849,101850,-0.09033951908349991,0.023122310638427734,0.8827733993530273,-0.1342162936925888,-7.959166526794434,-9.502701759338379,1.5779210329055786,2.3908803462982178,4.322783946990967,-2.5458922386169434,0.8595430254936218,-0.023370038717985153
38,101859,101860,-0.13386261463165283,0.026766417548060417,0.8287540078163147,11.207710266113281,-12.82580280303955,-6.579495429992676,1.6004199981689453,2.386380672454834,4.32128381729126,-2.319051504135132,0.8543258309364319,-0.10227102786302567
39,101869,101870,-0.15529951453208923,-0.007658286485821009,0.8075701594352722,18.300678253173828,-12.399419784545898,-1.7626721858978271,1.61091947555542,2.408879518508911,4.337782859802246,-2.235189914703369,1.0228374004364014,-0.16813378036022186
40,101879,101880,-0.10718433558940887,-0.03424378111958504,0.8573299646377563,21.110492706298828,-4.404084205627441,4.785608291625977,1.6004199981689453,2.4043798446655273,4.342282772064209,-2.1074020862579346,1.2152645587921143,-0.18396145105361938
41,101889,101890,-0.0947817862033844,-0.019269851967692375,0.8897145390510559,12.928435325622559,-0.14850696921348572,12.31566333770752,1.6004199981689453,2.413379192352295,4.348282337188721,-2.0952811241149902,1.4899320602416992,-0.1347588151693344
42,101899,101900,0.006434003356844187,0.04992690682411194,0.8895869851112366,-2.875945806503296,2.564093589782715,17.767454147338867,1.6094194650650024,2.4193789958953857,4.351282119750977,-2.211233139038086,1.6091519594192505,-0.031107014045119286
43,101909,101910,0.00502550695091486,0.04838540405035019,0.8630182147026062,-25.488481521606445,6.728898048400879,22.37948989868164,1.5929203033447266,2.4058797359466553,4.337782859802246,-2.2291059494018555,1.5073004961013794,0.13885806500911713
44,101919,101920,-0.09345201402902603,0.0015600412152707577,0.8652297258377075,-40.783111572265625,5.775301933288574,24.805862426757812,1.6004199981689453,2.41637921333313,4.348282337188721,-2.2232043743133545,1.0734177827835083,0.34535062313079834
45,101929,101930,-0.13354294002056122,0.0307008009403944,0.8528079986572266,-51.6825065612793,3.526643753051758,26.16364097595215,1.5899205207824707,2.435878276824951,4.346782684326172,-2.3426735401153564,0.4756067395210266,0.5543879866600037
46,101939,101940,-0.1078372374176979,0.1147724837064743,0.8576271533966064,-51.27920150756836,-5.522509574890137,26.730451583862305,1.6019198894500732,2.4538772106170654,4.346782684326172,-2.266049861907959,-0.023531580343842506,0.8328148722648621
47,101949,101950,-0.08615594357252121,0.11833925545215607,0.9356107711791992,-37.59855270385742,-20.88212776184082,24.650331497192383,1.6079195737838745,2.4748761653900146,4.3557820320129395,-2.2344515323638916,-0.536979079246521,1.0937107801437378
48,101959,101960,-0.12018639594316483,0.0353960320353508,0.9650974273681641,-13.684436798095703,-31.8027400970459,21.018512725830078,1.6214189529418945,2.461376905441284,4.366281509399414,-1.9499491453170776,-0.7218124866485596,1.3793261051177979
49,101969,101970,-0.09312686324119568,-0.00791628472507,0.9831047058105469,20.73546028137207,-37.83757781982422,15.307252883911133,1.6064196825027466,2.4733762741088867,4.378281116485596,-1.5779732465744019,-0.7820832133293152,1.6074378490447998
50,101979,101980,-0.05613640695810318,-0.002636042656376958,0.9891675114631653,44.59979248046875,-35.626487731933594,12.040546417236328,1.6124193668365479,2.4763760566711426,4.366281509399414,-1.42226243019104,-0.5402185916900635,1.7563424110412598
51,101989,101990,-0.09379176050424576,0.01797580160200596,1.0685627460479736,73.25872039794922,-17.477325439453125,12.721651077270508,1.5974200963974,2.4733762741088867,4.384280681610107,-0.9532955288887024,0.22497622668743134,1.9305328130722046
52,101999,102000,-0.139783576130867,0.003969503100961447,1.0729681253433228,90.72407531738281,8.709880828857422,17.721267700195312,1.5974200963974,2.4853756427764893,4.384280681610107,-0.7939379215240479,0.8827519416809082,2.0466115474700928
53,102009,102010,-0.14512336254119873,-0.022378137335181236,1.0643119812011719,87.16089630126953,34.36290740966797,22.66682243347168,1.604919672012329,2.4838757514953613,4.391780376434326,-1.1183019876480103,1.8071200847625732,2.2186505794525146
54,102019,102020,-0.09467940032482147,-0.0008717718301340938,1.0401723384857178,51.61360549926758,44.97386932373047,24.045255661010742,1.6004199981689453,2.46437668800354,4.366281509399414,-1.4403879642486572,2.3588907718658447,2.418761968612671
55,102029,102030,-0.0593799389898777,-0.058772679418325424,0.950750470161438,2.1812007427215576,39.814903259277344,20.75776481628418,1.6019198894500732,2.4478776454925537,4.346782684326172,-2.079197406768799,2.8907651901245117,2.6589863300323486
56,102039,102040,-0.05758342519402504,-0.00410467991605401,0.9319591522216797,-42.50822830200195,25.210046768188477,15.198984146118164,1.6004199981689453,2.437378168106079,4.339282989501953,-2.311680793762207,2.829280376434326,2.8881466388702393
57,102049,102050,-0.10564950108528137,0.02903224714100361,0.9343000650405884,-75.93663024902344,-4.198924541473389,10.806280136108398,1.604919672012329,2.4448776245117188,4.367781639099121,-2.5900936126708984,2.2477493286132812,3.0207531452178955
58,102059,102060,-0.0724778026342392,0.05516798794269562,0.9758747220039368,-84.8158187866211,-33.287696838378906,8.175317764282227,1.6139192581176758,2.462876796722412,4.361781597137451,-2.3859477043151855,1.4356951713562012,3.143409490585327
59,102069,102070,-0.0473678782582283,0.06045803055167198,1.0055677890777588,-67.95511627197266,-46.548484802246094,6.0648369789123535,1.6079195737838745,2.441877841949463,4.358781814575195,-2.127246379852295,0.5847899913787842,3.203476667404175
60,102079,102080,-0.025570888072252274,0.04204527661204338,0.9772986173629761,-37.96410369873047,-44.49810791015625,4.485236167907715,1.6154191493988037,2.4493775367736816,4.351282119750977,-1.6394282579421997,-0.005228000693023205,3.279541254043579
61,102089,102090,-0.04613571614027023,0.056622110307216644,0.9655836820602417,-6.61183500289917,-31.271135330200195,3.7981984615325928,1.6214189529418945,2.4313783645629883,4.360281944274902,-1.2234183549880981,-0.3907371163368225,3.3205137252807617
62,102099,102100,-0.047806546092033386,0.07428807765245438,0.9586935639381409,20.085277557373047,-15.680461883544922,4.047079563140869,1.619918942451477,2.4268786907196045,4.3557820320129395,-0.973358690738678,-0.34887444972991943,3.368539333343506
63,102109,102110,-0.012927183881402016,0.04338236525654793,0.9636349678039551,36.960655212402344,1.8119984865188599,4.976365566253662,1.6019198894500732,2.4238786697387695,4.343782901763916,-0.7644604444503784,0.00888066552579403,3.4388954639434814
64,102119,102120,0.0022340035066008568,0.017691513523459435,0.9521799683570862,34.848472595214844,9.002533912658691,4.068469524383545,1.6079195737838745,2.4448776245117188,4.358781814575195,-0.996175229549408,0.27032706141471863,3.4532501697540283
65,102129,102130,0.016637053340673447,0.051558028906583786,0.9704537987709045,20.041234970092773,11.083824157714844,2.680166244506836,1.6184190511703491,2.413379192352295,4.345282554626465,-1.1828854084014893,0.7390456795692444,3.4996864795684814
66,102139,102140,-0.04476087912917137,0.06546390801668167,0.9913528561592102,2.8911828994750977,4.197554588317871,0.10516469925642014,1.6124193668365479,2.4283785820007324,4.351282119750977,-1.3573476076126099,0.7530905604362488,3.500199317932129
67,102149,102150,-0.0710570439696312,0.09148828685283661,0.9989427924156189,-14.208992004394531,-8.20351791381836,-1.4732781648635864,1.5989199876785278,2.4268786907196045,4.343782901763916,-1.3252495527267456,0.7605311274528503,3.506047487258911
68,102159,102160,-0.047476500272750854,0.05562233924865723,0.9788506031036377,-19.343364715576172,-18.07790184020996,-1.6783826351165771,1.6154191493988037,2.440377950668335,4.366281509399414,-1.1804348230361938,0.5422298908233643,3.489232301712036
69,102169,102170,-0.02434086985886097,0.036203473806381226,0.9591331481933594,-13.726469039916992,-25.323448181152344,-1.7438522577285767,1.6214189529418945,2.4493775367736816,4.3572821617126465,-0.9499059319496155,0.3515293300151825,3.475475788116455
70,102179,102180,-0.04675106704235077,0.07568700611591339,0.9855469465255737,-7.200211524963379,-22.441091537475586,-1.1570239067077637,1.61091947555542,2.441877841949463,4.367781639099121,-0.9214093089103699,0.18835210800170898,3.43792724609375
71,102189,102190,-0.03813491389155388,0.11272787302732468,0.9717613458633423,-2.140003204345703,-14.128497123718262,-1.834496021270752,1.6169191598892212,2.4508774280548096,4.367781639099121,-0.5973424315452576,0.1326628029346466,3.4339215755462646
72,102199,102200,-0.009298793971538544,0.05961582809686661,0.9686369895935059,-0.0874713733792305,-9.016465187072754,-4.279897212982178,1.6154191493988037,2.446377754211426,4.351282119750977,-0.4802912473678589,0.1468752771615982,3.415442943572998
73,102209,102210,-0.03144598752260208,0.011777915060520172,0.9841465950012207,-8.445378303527832,-11.380199432373047,-9.571972846984863,1.6274186372756958,2.437378168106079,4.360281944274902,-0.2646122872829437,0.14964576065540314,3.379953622817993
74,102219,102220,-0.035495635122060776,0.0013528893468901515,0.9964550137519836,-12.123720169067383,-12.271973609924316,-15.725010871887207,1.6229188442230225,2.4568769931793213,4.367781639099121,-0.3733610510826111,0.033743683248758316,3.2745163440704346
75,102229,102230,-0.07917366176843643,0.027955612167716026,1.016385793685913,-11.837820053100586,-15.296692848205566,-21.97079849243164,1.619918942451477,2.4538772106170654,4.364781856536865,-0.09494258463382721,-0.2662214934825897,3.125023126602173
76,102239,102240,-0.08897851407527924,0.022216960787773132,1.0080453157424927,-1.5143649578094482,-15.864153861999512,-30.595748901367188,1.6184190511703491,2.46437668800354,4.366281509399414,-0.0639946386218071,-0.3814045786857605,2.8994128704071045
77,102249,102250,-0.05383016914129257,0.027889491990208626,1.0395578145980835,19.332324981689453,-26.518566131591797,-34.61094284057617,1.6124193668365479,2.4853756427764893,4.387280464172363,0.14867249131202698,-0.29384851455688477,2.5985300540924072
78,102259,102260,-0.05359875410795212,-0.022129571065306664,0.999516487121582,42.79423522949219,-41.9541130065918,-35.46821212768555,1.61091947555542,2.468876600265503,4.376780986785889,0.3978906571865082,-0.07909140735864639,2.255307912826538
79,102269,102270,-0.07754909247159958,-0.02736983448266983,1.0215359926223755,58.14942932128906,-50.9681396484375,-34.93279266357422,1.6214189529418945,2.467376470565796,4.387280464172363,1.0224395990371704,0.3600535988807678,1.8986165523529053
80,102279,102280,-0.0930488258600235,-0.031152207404375076,1.038015604019165,59.48408126831055,-45.33971405029297,-32.56774139404297,1.6154191493988037,2.4583771228790283,4.372281074523926,1.1793073415756226,0.9385033845901489,1.5475425720214844
81,102289,102290,-0.06149477884173393,-0.010806051082909107,1.0269211530685425,51.91650390625,-30.116994857788086,-28.97006607055664,1.6229188442230225,2.468876600265503,4.3797807693481445,1.659657597541809,1.64521062374115,1.1978776454925537
82,102299,102300,-0.062324706465005875,-0.017609843984246254,1.0260834693908691,40.9730110168457,-10.077186584472656,-26.54322052001953,1.6139192581176758,2.4568769931793213,4.370781421661377,1.9266246557235718,1.9446556568145752,0.9347414374351501
83,102309,102310,-0.06671712547540665,-0.06080792471766472,0.9821609258651733,23.903528213500977,8.76147747039795,-26.244354248046875,1.6124193668365479,2.443377733230591,4.366281509399414,2.082793712615967,2.471320867538452,0.6452673673629761
84,102319,102320,-0.06560879200696945,-0.08323398977518082,0.9767553210258484,6.92565393447876,30.346824645996094,-24.1265869140625,1.6094194650650024,2.437378168106079,4.3572821617126465,1.961143136024475,2.5581231117248535,0.42637476325035095
85,102329,102330,-0.06402129679918289,-0.036558847874403,1.0402694940567017,-2.9815568923950195,49.459739685058594,-15.687726020812988,1.6229188442230225,2.4478776454925537,4.361781597137451,1.4351803064346313,2.6899986267089844,0.17396216094493866
86,102339,102340,-0.05409453809261322,-0.033974651247262955,1.0074841976165771,-14.265592575073242,55.37081527709961,-7.380180358886719,1.6004199981689453,2.4553771018981934,4.37528133392334,0.8873105645179749,2.514312744140625,0.0695909932255745
87,102349,102350,-0.1044323742389679,-0.08477547764778137,0.9928902387619019,-21.75849151611328,49.8686637878418,-2.189199209213257,1.6064196825027466,2.4583771228790283,4.378281116485596,0.4906126856803894,2.44728946685791,0.01685621216893196
88,102359,102360,-0.11149396002292633,-0.05927525460720062,0.9939215779304504,-29.537311553955078,27.991355895996094,0.5847172737121582,1.6169191598892212,2.462876796722412,4.370781421661377,-0.10998709499835968,2.100623369216919,0.030995886772871017
89,102369,102370,-0.11393997818231583,-0.05159192159771919,0.9791067242622375,-32.88319778442383,-5.808305263519287,1.036986231803894,1.6289185285568237,2.432878255844116,4.367781639099121,-0.16077427566051483,1.9229830503463745,0.05009738728404045
90,102379,102380,-0.016826001927256584,-0.007641733158379793,0.9706575274467468,-26.923351287841797,-24.78520965576172,1.6890990734100342,1.6184190511703491,2.440377950668335,4.360281944274902,0.09727983176708221,1.646091341972351,0.08545920252799988
91,102389,102390,0.018982617184519768,0.00688538234680891,0.9369065165519714,-18.149295806884766,-44.091644287109375,2.6506805419921875,1.6259186267852783,2.441877841949463,4.376780986785889,0.4032142758369446,1.415482759475708,0.0968431904911995
92,102399,102400,-0.04790470376610756,0.027939172461628914,0.9660549163818359,-9.965502738952637,-49.948909759521484,4.58091402053833,1.6124193668365479,2.46437668800354,4.372281074523926,0.8911613821983337,1.1716645956039429,0.1413084864616394
93,102409,102410,-0.10165982693433762,-0.01242537796497345,1.0211201906204224,-4.0751423835754395,-40.72161102294922,6.181541442871094,1.619918942451477,2.4448776245117188,4.364781856536865,1.3468482494354248,1.191752552986145,0.13619469106197357
94,102419,102420,-0.13878266513347626,-0.01853722520172596,1.0537183284759521,4.647390365600586,-15.608644485473633,8.346421241760254,1.6379181146621704,2.4298784732818604,4.358781814575195,1.7466518878936768,1.1701933145523071,0.18432749807834625
95,102429,102430,-0.10159828513860703,-0.005903444718569517,0.9860525131225586,3.6491057872772217,28.469919204711914,8.709985733032227,1.6394180059432983,2.437378168106079,4.360281944274902,1.585957646369934,1.2557992935180664,0.19624151289463043
96,102439,102440,0.012582596391439438,0.06615529209375381,0.9045657515525818,-9.29676628112793,69.7857894897461,7.087248802185059,1.6094194650650024,2.443377733230591,4.360281944274902,1.0618185997009277,1.279054045677185,0.25102561712265015
97,102449,102450,0.028165297582745552,0.05475261062383652,0.9153554439544678,-21.16691017150879,82.15797424316406,5.277414798736572,1.604919672012329,2.492875337600708,4.3797807693481445,0.41020646691322327,1.1506013870239258,0.3533179461956024
98,102459,102460,-0.017606031149625778,0.016999708488583565,0.9873268008232117,-20.015588760375977,63.0989875793457,5.809264659881592,1.6184190511703491,2.488375425338745,4.393280029296875,-0.38362938165664673,0.8223118185997009,0.46051496267318726
99,102469,102470,-0.04225686565041542,0.013365225866436958,1.0377862453460693,-12.147468566894531,21.9731502532959,7.6105499267578125,1.6064196825027466,2.4493775367736816,4.372281074523926,-0.9303997755050659,0.6063513159751892,0.5435587167739868
100,102479,102480,-0.08689193427562714,0.003880805801600218,1.0485635995864868,-2.3721237182617188,-19.319141387939453,9.69595718383789,1.6064196825027466,2.4223787784576416,4.363281726837158,-0.758751630783081,0.4513080418109894,0.6889463663101196
101,102489,102490,-0.09831154346466064,-0.01802387647330761,1.0430876016616821,8.456184387207031,-52.35398864746094,13.766524314880371,1.6154191493988037,2.440377950668335,4.354282379150391,-0.5781879425048828,0.47700202465057373,0.7728747725486755
102,102499,102500,-0.06760096549987793,-0.031137719750404358,1.0393028259277344,9.620782852172852,-76.24112701416016,16.189006805419922,1.6154191493988037,2.467376470565796,4.354282379150391,0.042329899966716766,0.6338748335838318,0.8995907306671143
103,102509,102510,-0.04370676353573799,-0.02591894008219242,1.0743277072906494,0.1354215443134308,-84.37510681152344,15.107580184936523,1.6184190511703491,2.4553771018981934,4.354282379150391,0.6352720856666565,0.7600724697113037,1.023952841758728
104,102519,102520,-0.04630998894572258,-0.0396866500377655,1.046920895576477,-12.429237365722656,-74.99889373779297,13.16761302947998,1.633418321609497,2.443377733230591,4.372281074523926,1.5832959413528442,0.7221665978431702,1.1840558052062988
105,102529,102530,-0.0702277272939682,0.0077942535281181335,1.0172480344772339,-16.740663528442383,-59.23719024658203,11.039938926696777,1.6439177989959717,2.435878276824951,4.364781856536865,2.1422736644744873,0.5134182572364807,1.3106660842895508
106,102539,102540,-0.09207598119974136,-0.009666822850704193,0.9901975393295288,-19.956695556640625,-34.98982620239258,7.531587600708008,1.649917483329773,2.438878059387207,4.361781597137451,2.770397424697876,0.23846378922462463,1.4481877088546753
107,102549,102550,-0.04475215822458267,-0.02117983065545559,1.0139909982681274,-17.72323989868164,-8.884127616882324,3.693446159362793,1.6319184303283691,2.408879518508911,4.34078311920166,3.1156227588653564,0.07770518958568573,1.5095456838607788
108,102559,102560,-0.053877659142017365,-0.0237080380320549,1.0421537160873413,-10.908185958862305,20.048202514648438,0.17229777574539185,1.634918212890625,2.3968801498413086,4.343782901763916,3.1070716381073,-0.17204777896404266,1.564312219619751
109,102569,102570,-0.08191454410552979,0.007681317161768675,1.0213580131530762,2.56384015083313,44.340675354003906,-2.7092740535736084,1.6304184198379517,2.407379627227783,4.333283424377441,2.774630546569824,-0.13910584151744843,1.50732421875
110,102579,102580,-0.10684558004140854,0.06079593300819397,0.9847090244293213,22.007896423339844,52.88681411743164,-4.56878137588501,1.6214189529418945,2.4043798446655273,4.342282772064209,2.120706081390381,-0.004455865826457739,1.4323432445526123
111,102589,102590,-0.09457115828990936,0.05326827988028526,1.0198851823806763,35.04570388793945,48.72634506225586,-6.649641990661621,1.6184190511703491,2.3983800411224365,4.336283206939697,1.7276074886322021,0.2035713642835617,1.3945320844650269
112,102599,102600,-0.09300204366445541,-0.07445184886455536,1.029133677482605,33.972564697265625,32.330997467041016,-8.212465286254883,1.6259186267852783,2.4028797149658203,4.337782859802246,1.3145041465759277,0.7743562459945679,1.2426427602767944
113,102609,102610,-0.10983006656169891,-0.13139919936656952,1.0086108446121216,27.918277740478516,10.268776893615723,-10.725764274597168,1.6154191493988037,2.3983800411224365,4.333283424377441,1.0463471412658691,0.954287588596344,1.2280343770980835
114,102619,102620,-0.09938864409923553,-0.12476825714111328,0.9999807476997375,13.259217262268066,-6.2606048583984375,-12.283533096313477,1.6319184303283691,2.384880781173706,4.34078311920166,0.8984832763671875,1.1362109184265137,1.157317042350769
115,102629,102630,-0.06254567205905914,-0.10093466937541962,0.9669827222824097,3.935454845428467,-16.71016502380371,-10.886994361877441,1.6304184198379517,2.3683815002441406,4.315284252166748,1.061083436012268,1.3156262636184692,1.021079659461975
116,102639,102640,-0.06834324449300766,-0.04748779535293579,0.9486066102981567,5.257009029388428,-26.392356872558594,-8.355795860290527,1.6274186372756958,2.3743813037872314,4.333283424377441,1.3064048290252686,1.3889936208724976,0.9020078778266907
117,102649,102650,-0.05985140800476074,0.022091930732131004,0.9979236125946045,6.248980522155762,-34.815284729003906,-4.715093612670898,1.6304184198379517,2.362381935119629,4.3302836418151855,1.766390323638916,1.4872944355010986,0.8061580061912537
118,102659,102660,-0.07846815884113312,-0.03577518090605736,1.0140142440795898,-3.012740135192871,-36.789493560791016,-2.6075596809387207,1.6319184303283691,2.3788809776306152,4.325783729553223,2.0481700897216797,1.4016708135604858,0.8004662990570068
119,102669,102670,-0.05276097357273102,-0.0716698169708252,1.0074565410614014,-5.716120719909668,-27.701513290405273,-3.570202589035034,1.6409178972244263,2.3758811950683594,4.33478307723999,2.205179214477539,1.3373807668685913,0.7680066227912903
120,102679,102680,-0.029429178684949875,-0.04934101179242134,0.9631838798522949,-2.522177219390869,-4.876932621002197,-3.728999137878418,1.6379181146621704,2.3668816089630127,4.3287835121154785,2.585738182067871,1.3292440176010132,0.7172515988349915
121,102689,102690,-0.034423165023326874,-0.05759239196777344,0.9320187568664551,5.565901279449463,26.35694122314453,0.00818574894219637,1.6304184198379517,2.359381914138794,4.312284469604492,2.5512053966522217,1.3159894943237305,0.6730351448059082
122,102699,102700,-0.06633199006319046,-0.08154447376728058,0.9428552985191345,9.053074836730957,48.7153434753418,3.7628490924835205,1.6169191598892212,2.3758811950683594,4.313784122467041,2.186660051345825,1.5544878244400024,0.5936251282691956
123,102709,102710,-0.06186085194349289,-0.06081707030534744,0.9120514392852783,4.234176158905029,59.15264892578125,3.771641969680786,1.6259186267852783,2.3908803462982178,4.319784164428711,1.8427340984344482,1.5211459398269653,0.7012506723403931
124,102719,102720,-0.0627545416355133,-0.0499008409678936,0.8743935227394104,-5.604874610900879,58.79384994506836,2.350067138671875,1.6289185285568237,2.3938803672790527,4.34078311920166,0.9419457912445068,1.539175271987915,0.7376194000244141
125,102729,102730,-0.040139127522706985,-0.09673119336366653,0.8898540735244751,-12.448395729064941,58.38029861450195,3.5183849334716797,1.6169191598892212,2.3998799324035645,4.33478307723999,0.7738677859306335,1.541725754737854,0.7894752025604248
126,102739,102740,-0.03773759678006172,-0.1422135829925537,0.9049533009529114,-15.771276473999023,64.02223205566406,6.603780269622803,1.6064196825027466,2.4013798236846924,4.345282554626465,0.0679689347743988,1.3035534620285034,0.8710354566574097
127,102749,102750,-0.0192659180611372,-0.09669118374586105,0.8981756567955017,-20.1068058013916,64.74456024169922,10.31216049194336,1.5914204120635986,2.410379409790039,4.342282772064209,-0.43692150712013245,1.2935124635696411,0.9128630757331848
128,102759,102760,0.02619692124426365,-0.05419380962848663,0.877107560634613,-19.919639587402344,55.96536636352539,14.680387496948242,1.6094194650650024,2.4193789958953857,4.342282772064209,-1.1346815824508667,0.9515854120254517,1.0673354864120483
129,102769,102770,0.011567680165171623,-0.06992719322443008,0.8706707954406738,-23.59633445739746,27.67030906677246,17.58757209777832,1.6034197807312012,2.4193789958953857,4.348282337188721,-1.6931766271591187,1.021481990814209,1.1523213386535645
130,102779,102780,-0.0027951246593147516,-0.03613867983222008,0.8604681491851807,-24.073453903198242,-1.1939834356307983,18.34025764465332,1.619918942451477,2.414879322052002,4.34078311920166,-1.9261170625686646,0.6036376357078552,1.3757771253585815
131,102789,102790,0.034851860255002975,-0.014244694262742996,0.8611610531806946,-22.70856285095215,-31.151386260986328,17.01660919189453,1.6079195737838745,2.411879301071167,4.346782684326172,-1.8118478059768677,0.5549290776252747,1.5359848737716675
132,102799,102800,0.02603829838335514,-0.0014571825740858912,0.8852132558822632,-21.259014129638672,-48.15690231323242,12.77906608581543,1.6004199981689453,2.4223787784576416,4.345282554626465,-1.4023475646972656,0.16417600214481354,1.732718586921692
133,102809,102810,-0.006254320964217186,0.019745798781514168,0.8832868933677673,-24.430816650390625,-46.92637634277344,7.776009559631348,1.6064196825027466,2.440377950668335,4.36928129196167,-1.1342397928237915,0.1293625682592392,1.830685019493103
134,102819,102820,-0.0031005623750388622,0.06096743047237396,0.8905158042907715,-32.622962951660156,-27.18258285522461,2.736292600631714,1.619918942451477,2.438878059387207,4.3557820320129395,-0.46411964297294617,-0.05168364942073822,1.9135907888412476
135,102829,102830,-0.07646734267473221,0.025457216426730156,0.9319578409194946,-46.34586715698242,4.689274311065674,-2.341715097427368,1.6184190511703491,2.4253787994384766,4.3572821617126465,-0.308112770318985,-0.40453752875328064,1.9375386238098145
136,102839,102840,-0.08062674105167389,-0.020037395879626274,0.9409276247024536,-49.88180923461914,40.19960403442383,-7.063059329986572,1.6229188442230225,2.4508774280548096,4.352782249450684,-0.4677220582962036,-0.8778642416000366,1.9093384742736816
137,102849,102850,-0.032667577266693115,0.023581719025969505,0.9338120818138123,-41.10201644897461,59.66935729980469,-8.869080543518066,1.6034197807312012,2.4763760566711426,4.381280899047852,-0.8405086398124695,-1.42329740524292,1.8372482061386108
138,102859,102860,-0.0162766482681036,0.03566048666834831,0.9364713430404663,-19.2935848236084,62.339111328125,-10.64724063873291,1.5929203033447266,2.486875534057617,4.376780986785889,-1.7704753875732422,-1.6956422328948975,1.735769510269165
139,102869,102870,-0.01398115511983633,-0.013706674799323082,0.9787983298301697,12.293632507324219,49.780235290527344,-11.88542366027832,1.5974200963974,2.4853756427764893,4.378281116485596,-2.1027450561523438,-1.9619618654251099,1.5949196815490723
140,102879,102880,-0.02241336554288864,-0.07716947048902512,0.9987353086471558,42.3934211730957,26.930213928222656,-12.466923713684082,1.6034197807312012,2.4853756427764893,4.384280681610107,-2.4655861854553223,-1.6640703678131104,1.458707571029663
141,102889,102890,-0.020793696865439415,-0.047266945242881775,0.9797104001045227,60.55719757080078,-0.4586549401283264,-11.340144157409668,1.5854207277297974,2.5033748149871826,4.393280029296875,-2.7943031787872314,-1.0060452222824097,1.3590115308761597
142,102899,102900,-0.03287765383720398,-0.036402035504579544,0.9552350640296936,61.04319763183594,-20.053693771362305,-9.12690544128418,1.604919672012329,2.5078744888305664,4.3827805519104,-2.7147557735443115,-0.5754779577255249,1.2169228792190552
143,102909,102910,-0.05363016575574875,-0.10773202776908875,0.952643871307373,50.58279800415039,-36.16132354736328,-6.862008571624756,1.604919672012329,2.4988749027252197,4.391780376434326,-2.5335731506347656,0.055101118981838226,1.1348375082015991
144,102919,102920,-0.03213080018758774,-0.14870712161064148,0.9592865705490112,31.017274856567383,-43.52969741821289,-5.262638568878174,1.6094194650650024,2.470376491546631,4.378281116485596,-2.2561986446380615,0.3969166874885559,1.0506880283355713
145,102929,102930,-0.060439493507146835,-0.12484433501958847,0.947322428226471,4.0357441902160645,-42.91558837890625,-4.151965618133545,1.6034197807312012,2.4553771018981934,4.36928129196167,-1.603015422821045,0.6778155565261841,0.9609594345092773
146,102939,102940,-0.0441899299621582,-0.05531570315361023,0.9551680684089661,-20.0445613861084,-32.11366653442383,-3.8005211353302,1.6139192581176758,2.4478776454925537,4.358781814575195,-1.502834439277649,0.524481475353241,0.9215996265411377
147,102949,102950,-0.033673014491796494,-0.07870505005121231,0.968474268913269,-39.68832778930664,-13.831090927124023,-3.1738064289093018,1.6079195737838745,2.4478776454925537,4.364781856536865,-1.173499584197998,0.1382732391357422,0.8432400226593018
148,102959,102960,-0.07967590540647507,-0.04659053310751915,0.998322606086731,-46.086483001708984,4.1263580322265625,-0.5841946005821228,1.5989199876785278,2.4748761653900146,4.364781856536865,-1.0007383823394775,-0.21276599168777466,0.8198006749153137
149,102969,102970,-0.08652444183826447,-0.04613298550248146,1.0173149108886719,-39.25315856933594,17.635467529296875,1.536185622215271,1.5974200963974,2.467376470565796,4.366281509399414,-1.3876516819000244,-0.676680326461792,0.8522600531578064
150,102979,102980,0.00272765033878386,-0.03431763872504234,1.0066171884536743,-25.435428619384766,23.594003677368164,3.5028674602508545,1.6079195737838745,2.4748761653900146,4.3557820320129395,-1.6560438871383667,-0.7791428565979004,0.9390556812286377
151,102989,102990,0.03176795318722725,-0.020511485636234283,0.9831202626228333,-9.638992309570312,22.02646255493164,3.8177473545074463,1.6064196825027466,2.4823758602142334,4.378281116485596,-1.9128453731536865,-0.8747203946113586,1.0061581134796143
152,102999,103000,0.01746125891804695,-0.009869628585875034,0.9789122939109802,4.126311302185059,14.04955768585205,3.6511757373809814,1.61091947555542,2.4778759479522705,4.3827805519104,-2.0433976650238037,-0.9391682744026184,1.032504916191101
153,103009,103010,0.016998015344142914,0.016917701810598373,0.9832453727722168,10.458922386169434,1.0647974014282227,4.694606781005859,1.61091947555542,2.4598770141601562,4.3797807693481445,-2.2330245971679688,-0.8837186694145203,1.0794422626495361
154,103019,103020,0.0059206560254096985,0.05416693165898323,0.9906070828437805,7.954802989959717,-11.673375129699707,6.5248613357543945,1.595920205116272,2.4598770141601562,4.361781597137451,-2.2033398151397705,-0.768800675868988,1.1261014938354492
155,103029,103030,0.006946743931621313,0.04776923358440399,0.9994128346443176,-0.6023162007331848,-22.53437042236328,6.8802947998046875,1.6094194650650024,2.467376470565796,4.366281509399414,-2.0459134578704834,-0.7195722460746765,1.179424524307251
156,103039,103040,-0.05120861902832985,0.014359449967741966,0.9790897965431213,-8.055167198181152,-28.8950138092041,7.464809894561768,1.5974200963974,2.461376905441284,4.348282337188721,-2.018657922744751,-0.7954033017158508,1.2651177644729614
157,103049,103050,-0.07353584468364716,0.07633288204669952,0.980220377445221,-12.950216293334961,-32.210655212402344,6.871103286743164,1.6184190511703491,2.461376905441284,4.360281944274902,-1.448233962059021,-0.9186927080154419,1.2801380157470703
158,103059,103060,-0.006599157117307186,0.13817791640758514,1.0062130689620972,-13.233687400817871,-33.53845977783203,5.927976131439209,1.61091947555542,2.4748761653900146,4.38878059387207,-1.352241039276123,-0.9554028511047363,1.4221669435501099
159,103069,103070,0.052735552191734314,0.1290094256401062,0.9998940825462341,-12.947593688964844,-30.1201171875,3.5507123470306396,1.6244187355041504,2.467376470565796,4.378281116485596,-0.9556112885475159,-1.1391122341156006,1.4574261903762817
160,103079,103080,0.052538637071847916,0.0445585735142231,0.9816989898681641,-13.05910873413086,-24.324357986450195,1.1456080675125122,1.6169191598892212,2.4748761653900146,4.373781204223633,-0.7038753032684326,-1.2432301044464111,1.513364315032959
161,103089,103090,0.008899439126253128,0.0013402869226410985,0.9842908382415771,-13.630792617797852,-15.211705207824707,-1.6601632833480835,1.6259186267852783,2.4748761653900146,4.367781639099121,-0.5539363622665405,-1.488147258758545,1.5163651704788208
162,103099,103100,-0.01667606830596924,-0.018397217616438866,0.9816241264343262,-13.763616561889648,-6.344982147216797,-4.311604022979736,1.6274186372756958,2.4763760566711426,4.378281116485596,-0.40213093161582947,-1.6627485752105713,1.4910705089569092
163,103109,103110,0.020272308960556984,0.03634144738316536,1.0071609020233154,-11.270328521728516,0.21145425736904144,-6.63075590133667,1.6124193668365479,2.488375425338745,4.381280899047852,-0.4538012146949768,-1.7573076486587524,1.4858087301254272
164,103119,103120,0.05014868080615997,0.027385164052248,0.9958077669143677,-4.844696998596191,3.2065987586975098,-8.234081268310547,1.6079195737838745,2.4748761653900146,4.358781814575195,-0.5889651775360107,-1.7293730974197388,1.4818567037582397
165,103129,103130,0.014226860366761684,-0.005270241294056177,0.9893065690994263,3.3827013969421387,1.5981485843658447,-9.390606880187988,1.6064196825027466,2.4763760566711426,4.387280464172363,-0.5301041007041931,-1.8029828071594238,1.3702656030654907
166,103139,103140,-0.025686150416731834,-0.01847863383591175,0.9888598322868347,9.775664329528809,-8.39250659942627,-8.175070762634277,1.6289185285568237,2.462876796722412,4.373781204223633,-0.5534267425537109,-1.7432982921600342,1.2860914468765259
167,103149,103150,-0.013715868815779686,-0.021613728255033493,1.0065569877624512,9.407416343688965,-17.358186721801758,-7.04376745223999,1.6004199981689453,2.4763760566711426,4.381280899047852,-0.4292287528514862,-1.686453104019165,1.1868547201156616
168,103159,103160,0.0043030125088989735,0.05822650343179703,1.0345033407211304,8.359004020690918,-26.04727554321289,-7.605196952819824,1.6184190511703491,2.470376491546631,4.387280464172363,-0.5013424158096313,-1.4888752698898315,1.2093876600265503
169,103169,103170,0.02101830020546913,0.08328825980424881,1.0228837728500366,6.241217613220215,-32.065608978271484,-8.425140380859375,1.6214189529418945,2.4853756427764893,4.381280899047852,0.07187788188457489,-1.3899691104888916,1.0523532629013062
170,103179,103180,0.009992432780563831,0.03520212322473526,1.0052461624145508,2.5470337867736816,-36.26856231689453,-7.508794784545898,1.6319184303283691,2.4748761653900146,4.3857808113098145,0.21615247428417206,-1.3291471004486084,1.0303809642791748
171,103189,103190,-0.03254365921020508,-0.031024234369397163,1.0145119428634644,-2.83978271484375,-35.41053771972656,-8.868809700012207,1.6124193668365479,2.4733762741088867,4.37528133392334,0.7030675411224365,-1.396770715713501,0.9146713614463806
172,103199,103200,-0.03587491437792778,-0.008768958039581776,1.0313750505447388,-6.851836681365967,-28.83952522277832,-9.892413139343262,1.6379181146621704,2.4748761653900146,4.3797807693481445,0.8617986440658569,-1.390606164932251,0.8950756788253784
173,103209,103210,-0.10226386040449142,-0.01040019653737545,1.0463680028915405,-8.92449951171875,-21.042348861694336,-11.866957664489746,1.633418321609497,2.4853756427764893,4.372281074523926,1.2952632904052734,-1.6000728607177734,0.7551035284996033
174,103219,103220,-0.10082963854074478,-0.013392392545938492,1.082373857498169,-8.49048137664795,-14.280267715454102,-12.95202922821045,1.6229188442230225,2.4838757514953613,4.367781639099121,1.2437673807144165,-1.7484644651412964,0.7244341969490051
175,103229,103230,-0.05717984214425087,-0.01294785737991333,1.07969331741333,-2.719301700592041,-7.409541130065918,-14.341492652893066,1.6259186267852783,2.4808759689331055,4.38878059387207,1.451910376548767,-1.8581814765930176,0.5839750170707703
176,103239,103240,-0.06581785529851913,0.003447639523074031,1.0677374601364136,8.248913764953613,-2.5756912231445312,-15.156076431274414,1.6274186372756958,2.4823758602142334,4.37528133392334,1.4795780181884766,-1.920274257659912,0.46455278992652893
177,103249,103250,-0.028990479186177254,-0.027684016153216362,1.0032572746276855,18.525711059570312,-0.44542792439460754,-15.813813209533691,1.6289185285568237,2.468876600265503,4.370781421661377,1.571128487586975,-1.736030101776123,0.29022669792175293
178,103259,103260,-0.05117940530180931,-0.02302846498787403,0.9957598447799683,28.627962112426758,-4.577845573425293,-17.172746658325195,1.6274186372756958,2.467376470565796,4.384280681610107,1.359885573387146,-1.520977258682251,0.20105932652950287
179,103269,103270,-0.027960248291492462,-0.022570382803678513,1.012296438217163,28.19367790222168,-12.054725646972656,-18.565269470214844,1.6394180059432983,2.4763760566711426,4.366281509399414,1.3814319372177124,-1.114734172821045,0.026384588330984116
180,103279,103280,-0.03200998157262802,-0.016968825832009315,1.0102100372314453,24.070404052734375,-18.84813117980957,-18.82986831665039,1.6469175815582275,2.4568769931793213,4.3797807693481445,1.3785109519958496,-0.7975291013717651,-0.12150629609823227
181,103289,103290,-0.03713380545377731,-0.0024878084659576416,1.0042191743850708,14.484414100646973,-22.984081268310547,-17.642122268676758,1.633418321609497,2.437378168106079,4.360281944274902,1.7055788040161133,-0.6525503396987915,-0.33265814185142517
182,103299,103300,-0.03434458747506142,-0.0206639152020216,1.0296307802200317,9.834583282470703,-25.2759952545166,-16.06403923034668,1.6409178972244263,2.438878059387207,4.367781639099121,1.9476896524429321,-0.49025970697402954,-0.5098138451576233
183,103309,103310,-0.023387903347611427,-0.08453571051359177,1.034882664680481,5.32111930847168,-19.67721939086914,-14.487574577331543,1.6319184303283691,2.4298784732818604,4.361781597137451,2.19413685798645,-0.5442831516265869,-0.633428692817688
184,103319,103320,-0.016049837693572044,-0.042831722646951675,1.0107550621032715,2.042989730834961,-5.9120612144470215,-13.198515892028809,1.633418321609497,2.440377950668335,4.378281116485596,2.242901563644409,-0.4293610453605652,-0.747822642326355
185,103329,103330,-0.03298262879252434,-0.017346221953630447,0.9779613614082336,0.3738612234592438,5.605362415313721,-12.30103874206543,1.636418104171753,2.434378147125244,4.360281944274902,2.373600482940674,-0.3760424554347992,-0.9001961350440979
186,103339,103340,0.013671918772161007,-0.00738702155649662,0.9709575176239014,0.9566283822059631,10.841571807861328,-9.929461479187012,1.6379181146621704,2.441877841949463,4.364781856536865,2.181442975997925,-0.6946931481361389,-0.8985980749130249
187,103349,103350,0.06381966918706894,0.01651030406355858,0.9620609283447266,3.9620773792266846,13.57131576538086,-8.220508575439453,1.633418321609497,2.437378168106079,4.3572821617126465,2.251981019973755,-0.5599292516708374,-1.0762696266174316
188,103359,103360,0.017253179103136063,0.02656964771449566,0.990256667137146,12.082517623901367,10.0900297164917,-5.022047519683838,1.6229188442230225,2.4448776245117188,4.361781597137451,1.8651279211044312,-0.4273265600204468,-1.135500192642212
189,103369,103370,-0.020696014165878296,-0.007626980077475309,0.9861176609992981,19.44317054748535,3.3284196853637695,-2.933645248413086,1.6424179077148438,2.434378147125244,4.363281726837158,1.8316986560821533,-0.3236151337623596,-1.1984401941299438
190,103379,103380,-0.017223555594682693,-0.04684668034315109,0.9590840339660645,24.93888282775879,-5.15230655670166,-0.7705580592155457,1.6394180059432983,2.440377950668335,4.366281509399414,1.8412481546401978,0.0395028330385685,-1.2952204942703247
191,103389,103390,0.017809245735406876,-0.11394819617271423,0.9757028818130493,27.32048797607422,-14.473422050476074,1.3825287818908691,1.6274186372756958,2.443377733230591,4.37528133392334,1.8629096746444702,0.1824977546930313,-1.2656993865966797
192,103399,103400,0.014928272925317287,-0.02057509683072567,0.9740821123123169,26.171815872192383,-21.35792350769043,3.4079957008361816,1.633418321609497,2.440377950668335,4.372281074523926,2.1015682220458984,0.5744737386703491,-1.3110170364379883
193,103409,103410,0.024202436208724976,-0.05097971484065056,0.9387581944465637,20.667993545532227,-24.864099502563477,6.502530097961426,1.6304184198379517,2.440377950668335,4.381280899047852,2.2671008110046387,0.6504495739936829,-1.2069545984268188
194,103419,103420,-0.019919443875551224,-0.04010207951068878,0.9853613376617432,13.127813339233398,-23.52490997314453,9.14389705657959,1.6304184198379517,2.440377950668335,4.37528133392334,2.7792654037475586,0.8518977761268616,-1.1722087860107422
195,103429,103430,0.0012375919613987207,0.013284260407090187,1.0101271867752075,6.082516193389893,-19.06864356994629,10.53632640838623,1.6439177989959717,2.4538772106170654,4.373781204223633,2.607725143432617,0.9981399774551392,-1.0584357976913452
196,103439,103440,0.03482706472277641,0.07090214639902115,1.0389163494110107,1.2777036428451538,-8.028743743896484,11.446002006530762,1.649917483329773,2.4478776454925537,4.376780986785889,2.913644313812256,0.9528001546859741,-0.9243640303611755
197,103449,103450,0.015831511467695236,0.09110581874847412,1.0622193813323975,0.008139079436659813,2.5870883464813232,11.79479694366455,1.6424179077148438,2.4523773193359375,4.37528133392334,2.8296802043914795,0.9911621809005737,-0.8198342323303223
198,103459,103460,-0.039339665323495865,0.05933501198887825,1.0621402263641357,1.7801047563552856,11.181784629821777,12.138672828674316,1.636418104171753,2.4523773193359375,4.378281116485596,2.875396490097046,1.0147193670272827,-0.7150148749351501
199,103469,103470,-0.05785107612609863,0.039915941655635834,1.0600696802139282,4.934813499450684,13.950698852539062,13.603689193725586,1.634918212890625,2.4508774280548096,4.370781421661377,2.801163673400879,0.99657142162323,-0.57806795835495
200,103479,103480,-0.04333985596895218,0.02491440810263157,1.051242709159851,9.860942840576172,11.700620651245117,13.861213684082031,1.6259186267852783,2.4448776245117188,4.376780986785889,2.6238021850585938,1.1086747646331787,-0.47514036297798157
201,103489,103490,-0.020982133224606514,-0.02032637968659401,1.0186738967895508,13.121976852416992,8.626103401184082,14.177485466003418,1.6409178972244263,2.4448776245117188,4.367781639099121,2.468482494354248,1.1476603746414185,-0.31326529383659363
202,103499,103500,-0.05332411825656891,-0.006801637355238199,1.045470118522644,13.486100196838379,2.32745361328125,14.44192886352539,1.6379181146621704,2.4508774280548096,4.352782249450684,2.4617319107055664,1.375655174255371,-0.21630743145942688
203,103509,103510,-0.05863489583134651,0.0019282433204352856,1.046933650970459,10.530780792236328,-6.2805399894714355,14.42806339263916,1.636418104171753,2.446377754211426,4.366281509399414,2.4887776374816895,1.3023391962051392,0.022871768102049828
204,103519,103520,-0.020741155371069908,-0.021131163462996483,1.0144696235656738,4.987168788909912,-14.148749351501465,13.921076774597168,1.649917483329773,2.4448776245117188,4.3857808113098145,2.569254159927368,1.325865387916565,0.1993265151977539
205,103529,103530,0.027693506330251694,-0.02751370333135128,1.0004632472991943,-0.5627501606941223,-19.02513313293457,13.31673526763916,1.6559171676635742,2.4448776245117188,4.376780986785889,2.5473012924194336,1.2602089643478394,0.3667197823524475
206,103539,103540,0.04582345858216286,-0.007011827547103167,1.006679654121399,-4.735983371734619,-18.44930648803711,13.423910140991211,1.6469175815582275,2.4568769931793213,4.361781597137451,2.663135051727295,1.2597953081130981,0.48088589310646057
207,103549,103550,0.001657558255828917,-0.00972109753638506,1.000303864479065,-6.047804355621338,-15.96427059173584,13.674297332763672,1.6424179077148438,2.4193789958953857,4.351282119750977,2.9776391983032227,1.2036017179489136,0.6301231980323792
208,103559,103560,0.04598670080304146,0.02291652001440525,0.9969732165336609,-4.573572635650635,-11.781502723693848,13.189668655395508,1.6529172658920288,2.4268786907196045,4.352782249450684,3.2242238521575928,1.1311020851135254,0.778312623500824
209,103569,103570,0.03798690438270569,0.04900605231523514,0.9907769560813904,-0.8229308128356934,-4.707065582275391,13.191544532775879,1.6424179077148438,2.4193789958953857,4.366281509399414,3.235535144805908,1.014931082725525,0.9230086803436279
210,103579,103580,0.024058513343334198,0.037369873374700546,0.9626948237419128,5.684922695159912,1.4444942474365234,13.115012168884277,1.6544172763824463,2.4283785820007324,4.351282119750977,3.26662540435791,1.184931755065918,0.9593132734298706
211,103589,103590,0.01151703018695116,0.04116583615541458,0.9679577946662903,15.401908874511719,3.1552207469940186,13.51750659942627,1.6469175815582275,2.4238786697387695,4.352782249450684,3.1561279296875,1.3257355690002441,1.0315487384796143
212,103599,103600,0.005726720206439495,0.06187405437231064,0.9843764901161194,20.727802276611328,4.156225204467773,13.465155601501465,1.634918212890625,2.4298784732818604,4.361781597137451,2.9597697257995605,1.5230690240859985,1.1115531921386719
213,103609,103610,-0.007954668253660202,0.06059390679001808,0.9791643023490906,16.176645278930664,5.004515647888184,12.157922744750977,1.6454176902770996,2.437378168106079,4.366281509399414,2.9730284214019775,1.7012659311294556,1.2652146816253662
214,103619,103620,0.004736296832561493,0.02998778410255909,0.9589797854423523,4.563380718231201,5.82481050491333,10.51956558227539,1.6394180059432983,2.4253787994384766,4.366281509399414,2.8816730976104736,1.765877366065979,1.4272640943527222
215,103629,103630,-0.017757711932063103,0.009981046430766582,0.9839850068092346,-5.398591041564941,3.5482559204101562,8.622925758361816,1.6454176902770996,2.4283785820007324,4.363281726837158,2.863048553466797,1.7955012321472168,1.5483390092849731
216,103639,103640,-0.03653145954012871,-0.025886885821819305,0.986624002456665,-14.497733116149902,6.870870590209961,6.59299898147583,1.6439177989959717,2.432878255844116,4.364781856536865,2.65728759765625,1.674843668937683,1.6319023370742798
217,103649,103650,-0.05552588030695915,-0.022233402356505394,0.9766284823417664,-20.20694351196289,11.205428123474121,4.542856693267822,1.6319184303283691,2.4448776245117188,4.3797807693481445,2.816030979156494,1.6242413520812988,1.70082688331604
218,103659,103660,-0.03797021880745888,0.027047310024499893,0.9837177991867065,-18.2056827545166,11.771051406860352,3.7771108150482178,1.636418104171753,2.443377733230591,4.366281509399414,2.6903316974639893,1.3593711853027344,1.7758934497833252
219,103669,103670,-0.024146804586052895,0.023857872933149338,0.9597102999687195,-12.00380802154541,9.11233901977539,3.1146628856658936,1.636418104171753,2.4283785820007324,4.36928129196167,2.5640532970428467,1.2898716926574707,1.754805326461792
220,103679,103680,-0.00984139647334814,0.030633138492703438,0.9736995697021484,-3.547307252883911,4.9294257164001465,4.331328392028809,1.6289185285568237,2.435878276824951,4.370781421661377,2.4959003925323486,1.1145352125167847,1.8192167282104492
221,103689,103690,-0.013764677569270134,0.0018425538437440991,0.9962627291679382,0.9777401685714722,0.051843978464603424,4.9857025146484375,1.6439177989959717,2.4298784732818604,4.358781814575195,2.4735920429229736,1.1334004402160645,1.8410980701446533
222,103699,103700,0.008111976087093353,-0.023774918168783188,0.9834897518157959,3.3679563999176025,-3.8467371463775635,5.3513593673706055,1.634918212890625,2.4478776454925537,4.376780986785889,2.6676976680755615,1.1470977067947388,1.9345570802688599
223,103709,103710,-0.0002258399617858231,0.01338945422321558,0.9893314242362976,3.2953763008117676,-5.948955535888672,6.0019211769104,1.6409178972244263,2.432878255844116,4.358781814575195,2.691833019256592,1.175037145614624,1.9852334260940552
224,103719,103720,-0.04283063858747482,0.003730979049578309,0.9969851970672607,0.6515564918518066,-5.433166027069092,6.518879413604736,1.648417592048645,2.4283785820007324,4.3572821617126465,2.666630983352661,1.2630019187927246,1.9970816373825073
225,103729,103730,-0.04907815530896187,-0.020877795293927193,0.9863988161087036,-2.708240270614624,-0.36485791206359863,6.870850086212158,1.6454176902770996,2.4193789958953857,4.351282119750977,2.765105724334717,1.2359685897827148,2.085644006729126
226,103739,103740,-0.052397165447473526,-0.020701542496681213,0.9912496209144592,-8.656453132629395,6.085243225097656,6.189997673034668,1.6379181146621704,2.4268786907196045,4.364781856536865,2.629262685775757,1.208109974861145,2.1180551052093506
227,103749,103750,-0.0713738352060318,-0.022108564153313637,0.979891836643219,-12.01882553100586,7.863840103149414,6.207447528839111,1.649917483329773,2.4298784732818604,4.358781814575195,2.5539498329162598,1.0979870557785034,2.1863200664520264
228,103759,103760,-0.06349541991949081,-0.03614841774106026,0.9347991943359375,-17.520116806030273,6.53565788269043,5.569926738739014,1.6304184198379517,2.434378147125244,4.366281509399414,2.4649124145507812,0.8605912327766418,2.2952170372009277
229,103769,103770,-0.031106118112802505,-0.01749979890882969,0.9583206176757812,-23.186899185180664,7.965376377105713,5.702372074127197,1.633418321609497,2.440377950668335,4.363281726837158,2.4354376792907715,1.0289790630340576,2.213432788848877
230,103779,103780,-0.01219183299690485,-0.03200908377766609,0.9449581503868103,-25.602863311767578,11.613775253295898,7.084822654724121,1.6394180059432983,2.440377950668335,4.366281509399414,2.3069570064544678,0.7384219169616699,2.2880287170410156
231,103789,103790,-0.003809021320194006,0.061977218836545944,0.9834145903587341,-28.388166427612305,17.854616165161133,6.65077018737793,1.648417592048645,2.443377733230591,4.360281944274902,2.259458541870117,0.4684858024120331,2.3750877380371094
232,103799,103800,0.054058682173490524,0.11079718917608261,0.9778027534484863,-27.990453720092773,23.31578826904297,5.99580192565918,1.6454176902770996,2.440377950668335,4.37528133392334,1.9546682834625244,0.025939594954252243,2.478549003601074
233,103809,103810,0.0661633238196373,0.07154784351587296,0.9518488049507141,-24.4455623626709,25.346935272216797,5.397157192230225,1.634918212890625,2.4568769931793213,4.373781204223633,1.7881146669387817,0.03875954449176788,2.4382357597351074
234,103819,103820,-0.0023094036150723696,-0.008691385388374329,0.9405943155288696,-17.66649627685547,22.35173797607422,5.373640537261963,1.6379181146621704,2.4568769931793213,4.373781204223633,1.4727154970169067,-0.38836896419525146,2.5471537113189697
235,103829,103830,-0.09425246715545654,-0.003536645323038101,0.9778703451156616,-11.226795196533203,16.1955623626709,5.048698425292969,1.6274186372756958,2.4733762741088867,4.37528133392334,1.2964012622833252,-0.4116939902305603,2.553203582763672
236,103839,103840,-0.09275372326374054,-0.024007033556699753,0.9949763417243958,-2.368988513946533,9.492439270019531,5.290215492248535,1.633418321609497,2.4553771018981934,4.384280681610107,1.1457310914993286,-0.6144768595695496,2.632669687271118
237,103849,103850,-0.0704955905675888,-0.07250133901834488,1.0045613050460815,3.666707754135132,1.7459259033203125,4.96021032333374,1.6454176902770996,2.4583771228790283,4.372281074523926,1.024675726890564,-0.6063966751098633,2.670900821685791
238,103859,103860,-0.06200357899069786,-0.08673962950706482,1.0053247213363647,5.776400089263916,-5.935805320739746,5.153722286224365,1.6394180059432983,2.470376491546631,4.372281074523926,1.0275764465332031,-0.44706612825393677,2.6885807514190674
239,103869,103870,-0.05859604850411415,-0.09665288776159286,0.9818739891052246,5.12896728515625,-11.099457740783691,5.917479038238525,1.6529172658920288,2.471876382827759,4.3827805519104,1.1384178400039673,-0.3390767574310303,2.7301430702209473
240,103879,103880,-0.024186991155147552,-0.09255651384592056,0.9742634296417236,0.29455241560935974,-13.214462280273438,6.330214977264404,1.633418321609497,2.4733762741088867,4.384280681610107,1.247487187385559,-0.3325904309749603,2.7984912395477295
241,103889,103890,-0.013181517831981182,0.021284539252519608,1.031110405921936,-9.159700393676758,-9.361063957214355,5.945047378540039,1.6394180059432983,2.46437668800354,4.381280899047852,1.370969533920288,-0.4166811406612396,2.8789796829223633
242,103899,103900,0.018026113510131836,-0.0415484681725502,1.001676321029663,-17.29446029663086,-5.410794734954834,5.235007286071777,1.6589170694351196,2.4748761653900146,4.3827805519104,1.439640998840332,-0.571552038192749,2.9501142501831055
243,103909,103910,0.02712266892194748,-0.056745436042547226,1.0083248615264893,-22.891338348388672,-1.8371917009353638,4.001986980438232,1.6379181146621704,2.465876579284668,4.376780986785889,1.3530011177062988,-0.7794449329376221,3.0080199241638184
244,103919,103920,-0.03342687711119652,-0.07392609119415283,1.0031932592391968,-22.760223388671875,2.6854488849639893,3.0495214462280273,1.6454176902770996,2.4793760776519775,4.393280029296875,1.3624025583267212,-0.9076337814331055,3.033808946609497
245,103929,103930,-0.07301449775695801,-0.08193223178386688,1.0054024457931519,-20.49686050415039,9.400639533996582,1.3489307165145874,1.6409178972244263,2.468876600265503,4.373781204223633,1.286697268486023,-1.1749626398086548,3.072197198867798
246,103939,103940,-0.06182871758937836,-0.05933498591184616,1.0413150787353516,-9.514725685119629,8.739407539367676,0.9393429756164551,1.649917483329773,2.468876600265503,4.3827805519104,1.138127326965332,-1.223828911781311,3.0659782886505127
247,103949,103950,-0.09884139150381088,-0.07055051624774933,1.0600800514221191,6.632601737976074,-0.20992788672447205,2.3626394271850586,1.6244187355041504,2.4733762741088867,4.387280464172363,1.192315697669983,-1.3671457767486572,3.072195529937744
248,103959,103960,-0.1324205994606018,-0.022029370069503784,1.0622506141662598,20.646581649780273,-8.613018035888672,4.8107218742370605,1.634918212890625,2.4748761653900146,4.376780986785889,1.2316253185272217,-1.2480947971343994,3.0879123210906982
249,103969,103970,-0.01878250204026699,-0.023275101557374,1.021295428276062,23.380706787109375,-15.119166374206543,8.50803279876709,1.6304184198379517,2.467376470565796,4.390280246734619,1.3901499509811401,-0.9512600302696228,3.1210126876831055
250,103979,103980,0.0014792971778661013,0.05861375480890274,1.034041166305542,18.245168685913086,-23.19278335571289,11.018153190612793,1.6439177989959717,2.471876382827759,4.3827805519104,1.4985793828964233,-0.7142454385757446,3.2113304138183594
251,103989,103990,-0.06524166464805603,0.05884023383259773,1.0465153455734253,3.3542096614837646,-36.14810562133789,10.784440040588379,1.6319184303283691,2.462876796722412,4.367781639099121,1.8440970182418823,-0.4624043107032776,3.300232172012329
252,103999,104000,-0.03425450250506401,0.08819165080785751,1.0710029602050781,-13.975787162780762,-43.02852249145508,10.10311508178711,1.633418321609497,2.46437668800354,4.37528133392334,2.170347213745117,-0.6208688020706177,3.4348442554473877
253,104009,104010,0.0018142509507015347,-0.004156109411269426,1.0331354141235352,-31.05828094482422,-33.77802276611328,6.9337053298950195,1.6559171676635742,2.465876579284668,4.38878059387207,2.8121068477630615,-0.9739320874214172,3.5313806533813477
254,104019,104020,0.03871002793312073,-0.050419922918081284,1.0216786861419678,-38.74291229248047,-10.703207969665527,1.9885656833648682,1.6544172763824463,2.4553771018981934,4.387280464172363,2.9283149242401123,-1.3419785499572754,3.6388320922851562
255,104029,104030,0.002435863483697176,-0.03684157878160477,1.013060450553894,-34.96696853637695,16.038650512695312,-3.813117742538452,1.6469175815582275,2.462876796722412,4.376780986785889,2.94012188911438,-1.6959292888641357,3.665628671646118
256,104039,104040,-0.00011974650988122448,0.0061419266276061535,0.9763129949569702,-25.781661987304688,35.49358367919922,-7.7738494873046875,1.649917483329773,2.462876796722412,4.376780986785889,2.6844828128814697,-2.0376830101013184,3.632904529571533
257,104049,104050,-0.005635120905935764,0.06142034754157066,0.9843242168426514,-12.2761812210083,48.581634521484375,-9.77659797668457,1.6454176902770996,2.46437668800354,4.399280071258545,2.0801963806152344,-2.1416726112365723,3.5614588260650635
258,104059,104060,0.016108257696032524,0.08383353054523468,1.0059560537338257,6.729002952575684,46.665042877197266,-10.816678047180176,1.6259186267852783,2.465876579284668,4.3797807693481445,1.6231309175491333,-2.2282421588897705,3.434730291366577
259,104069,104070,0.02249661274254322,0.06695564091205597,0.9914221167564392,23.950284957885742,35.93410873413086,-12.741674423217773,1.6289185285568237,2.465876579284668,4.3857808113098145,1.183103322982788,-2.076765298843384,3.293445348739624
260,104079,104080,0.043850526213645935,0.06997674703598022,0.9889532327651978,32.28194046020508,24.372791290283203,-14.168204307556152,1.6319184303283691,2.4508774280548096,4.367781639099121,1.0535188913345337,-1.7623554468154907,3.0888569355010986
261,104089,104090,0.034420985728502274,0.09535754472017288,1.0020489692687988,41.642181396484375,17.716266632080078,-12.907674789428711,1.6184190511703491,2.4583771228790283,4.366281509399414,0.7883809804916382,-1.3840337991714478,2.942314863204956
262,104099,104100,-0.0041203806176781654,0.04564421623945236,0.9661684036254883,49.119041442871094,17.881397247314453,-10.464688301086426,1.633418321609497,2.4553771018981934,4.36928129196167,0.6041689515113831,-0.9208876490592957,2.808466672897339
263,104109,104110,-0.008202466182410717,0.009761585853993893,0.9662121534347534,43.57836151123047,18.078258514404297,-8.797952651977539,1.6214189529418945,2.4493775367736816,4.37528133392334,0.41543662548065186,-0.3915298283100128,2.7034196853637695
264,104119,104120,-0.06725437194108963,-0.00912393257021904,1.0030937194824219,25.105667114257812,13.41103458404541,-7.565081596374512,1.633418321609497,2.4493775367736816,4.363281726837158,0.3904629647731781,-0.07462213188409805,2.582836627960205
265,104129,104130,-0.048065707087516785,-0.10035555809736252,0.9826259016990662,-5.234004974365234,5.894052982330322,-7.04978609085083,1.6319184303283691,2.432878255844116,4.352782249450684,0.16064582765102386,-0.030902601778507233,2.538433790206909
266,104139,104140,-0.08171524852514267,-0.11452553421258926,0.9717556834220886,-40.04581832885742,-0.053341686725616455,-8.259921073913574,1.619918942451477,2.4478776454925537,4.361781597137451,0.05801811069250107,-0.27882036566734314,2.478675365447998
267,104149,104150,-0.08573350310325623,-0.018064914271235466,0.9990235567092896,-66.77207946777344,-0.12618228793144226,-8.348113059997559,1.6379181146621704,2.4838757514953613,4.364781856536865,0.11521203815937042,-0.8343782424926758,2.3840410709381104
268,104159,104160,-0.09673608839511871,0.07130260020494461,1.0409623384475708,-78.03025817871094,1.968701958656311,-6.966904640197754,1.6304184198379517,2.5003750324249268,4.37528133392334,0.29723942279815674,-1.4781384468078613,2.2697291374206543
269,104169,104170,-0.08566877245903015,0.08173555135726929,1.0513564348220825,-72.12982940673828,3.0263617038726807,-6.8145928382873535,1.6259186267852783,2.486875534057617,4.3827805519104,0.22469162940979004,-2.4512460231781006,2.201582193374634
270,104179,104180,-0.09305541962385178,0.023840714246034622,1.0499478578567505,-48.30783462524414,6.734475612640381,-8.208674430847168,1.633418321609497,2.4763760566711426,4.372281074523926,0.13548029959201813,-2.885749101638794,2.1655220985412598
271,104189,104190,-0.10647833347320557,0.005154646001756191,1.028698205947876,-14.102516174316406,12.578390121459961,-9.805800437927246,1.6319184303283691,2.462876796722412,4.370781421661377,-0.007262061350047588,-3.4547278881073,2.0932047367095947
272,104199,104200,-0.07561004161834717,0.028688820078969002,1.0055850744247437,20.441802978515625,19.61419677734375,-11.353938102722168,1.6259186267852783,2.4568769931793213,4.358781814575195,-0.06724918633699417,-3.4532721042633057,1.9821562767028809
273,104209,104210,0.004409621935337782,0.0003495154087431729,0.9964466094970703,52.16704177856445,25.973125457763672,-12.038414001464844,1.6259186267852783,2.465876579284668,4.370781421661377,-0.37888896465301514,-2.9577717781066895,1.9261689186096191
274,104219,104220,-0.01620679907500744,0.051605820655822754,1.0409953594207764,73.04322814941406,29.60675621032715,-12.781694412231445,1.6184190511703491,2.4553771018981934,4.366281509399414,-0.7016721963882446,-2.4541842937469482,1.8139280080795288
275,104229,104230,-0.0449126735329628,0.07221375405788422,1.0734223127365112,80.26802825927734,26.585887908935547,-13.712833404541016,1.6064196825027466,2.461376905441284,4.37528133392334,-0.9765695929527283,-1.5943856239318848,1.6947072744369507
276,104239,104240,-0.03207903727889061,0.035685427486896515,1.0427743196487427,71.41988372802734,18.479162216186523,-14.838191986083984,1.6184190511703491,2.443377733230591,4.366281509399414,-1.1847814321517944,-0.8266481161117554,1.5306322574615479
277,104249,104250,-0.03314581885933876,0.01893680915236473,0.9913087487220764,48.71558380126953,7.249131679534912,-15.438600540161133,1.6079195737838745,2.417879104614258,4.3827805519104,-1.1860716342926025,-0.3310621976852417,1.276414394378662
278,104259,104260,-0.013861573301255703,0.027180515229701996,0.977270781993866,17.490806579589844,-5.365358829498291,-15.747986793518066,1.61091947555542,2.3998799324035645,4.34078311920166,-1.2208290100097656,-0.08588568866252899,1.058335781097412
279,104269,104270,0.015245052054524422,0.055098820477724075,0.9836562275886536,-12.093369483947754,-12.829330444335938,-16.915149688720703,1.6289185285568237,2.387880563735962,4.331783294677734,-1.1402455568313599,0.09116053581237793,0.8993133306503296
280,104279,104280,0.01269472949206829,0.05007850006222725,0.9949758648872375,-36.97941207885742,-11.047502517700195,-18.2895450592041,1.619918942451477,2.408879518508911,4.33478307723999,-0.9805639982223511,-0.12683100998401642,0.6969566345214844
281,104289,104290,-0.00501707848161459,0.0511467419564724,1.015979290008545,-48.71760177612305,-4.664866924285889,-19.53020668029785,1.619918942451477,2.4268786907196045,4.343782901763916,-0.8505889177322388,-0.46231168508529663,0.5202687382698059
282,104299,104300,-0.0018390455516055226,0.03416531905531883,1.0238630771636963,-43.17106628417969,3.914175271987915,-20.24085235595703,1.61091947555542,2.4298784732818604,4.3557820320129395,-0.9539897441864014,-1.0773764848709106,0.3217335343360901
283,104309,104310,-0.011402329429984093,0.008418981917202473,0.9987210035324097,-24.921113967895508,10.874767303466797,-19.024742126464844,1.6154191493988037,2.4223787784576416,4.333283424377441,-0.9650900959968567,-1.4279453754425049,0.15013083815574646
284,104319,104320,-0.01525761280208826,0.007247738540172577,0.9784039855003357,1.702870488166809,13.867839813232422,-17.30678939819336,1.604919672012329,2.4058797359466553,4.331783294677734,-1.095342755317688,-1.7265682220458984,-0.047407638281583786
285,104329,104330,-0.014544837176799774,0.06639334559440613,0.9383160471916199,29.010547637939453,12.309391021728516,-16.687911987304688,1.619918942451477,2.3968801498413086,4.343782901763916,-1.1979126930236816,-1.612107515335083,-0.18741191923618317
286,104339,104340,-0.052565135061740875,0.060032326728105545,0.9752770066261292,51.117740631103516,8.58204460144043,-16.53316879272461,1.6169191598892212,2.417879104614258,4.343782901763916,-1.249031901359558,-1.292163372039795,-0.348422110080719
287,104349,104350,-0.09611158818006516,0.025770170614123344,0.982255220413208,61.47428894042969,4.191136360168457,-16.790246963500977,1.6154191493988037,2.413379192352295,4.354282379150391,-1.3823182582855225,-0.7710039615631104,-0.48687267303466797
288,104359,104360,-0.07544843852519989,0.0625835657119751,0.9219852685928345,61.20671844482422,1.240883231163025,-17.538415908813477,1.6079195737838745,2.411879301071167,4.33478307723999,-1.462830901145935,-0.10070877522230148,-0.6188705563545227
289,104369,104370,-0.007967721670866013,0.06358403712511063,0.904021680355072,50.41183090209961,4.103858947753906,-18.75139808654785,1.6064196825027466,2.3953802585601807,4.333283424377441,-1.6579511165618896,0.39267271757125854,-0.8015139698982239
290,104379,104380,0.0345863401889801,0.05203570798039436,0.9561253786087036,32.49691390991211,7.110473155975342,-18.763328552246094,1.6094194650650024,2.38938045501709,4.339282989501953,-1.7370994091033936,0.7710205316543579,-1.032522439956665
291,104389,104390,0.030119823291897774,-0.02147253043949604,0.9675483703613281,14.487021446228027,7.339270114898682,-17.381093978881836,1.6154191493988037,2.3983800411224365,4.333283424377441,-1.7559003829956055,1.1444873809814453,-1.208844780921936
292,104399,104400,-0.09620323777198792,-0.09590324759483337,0.929379403591156,-3.6597046852111816,4.667640686035156,-15.878854751586914,1.6184190511703491,2.3953802585601807,4.348282337188721,-1.7024734020233154,1.230047583580017,-1.4276453256607056
293,104409,104410,-0.09581585973501205,-0.09048667550086975,0.9479665756225586,-15.022909164428711,-2.3487377166748047,-13.201007843017578,1.6244187355041504,2.4193789958953857,4.342282772064209,-1.7000032663345337,1.1975964307785034,-1.5981345176696777
294,104419,104420,0.011563735082745552,-0.053632255643606186,0.8994809985160828,-16.993698120117188,-8.15191650390625,-11.067934036254883,1.61091947555542,2.4208788871765137,4.346782684326172,-1.6930203437805176,0.9922769069671631,-1.7629977464675903
295,104429,104430,0.03201262280344963,-0.024817828088998795,0.8917363286018372,-11.120847702026367,-13.102044105529785,-8.923916816711426,1.6184190511703491,2.41637921333313,4.3572821617126465,-1.934009313583374,0.9776464104652405,-1.7925856113433838
296,104439,104440,-0.020742317661643028,-0.03263378143310547,0.9095420241355896,-6.090649127960205,-13.578347206115723,-7.281357288360596,1.6154191493988037,2.41637921333313,4.348282337188721,-1.7156225442886353,0.8289245963096619,-1.897715449333191
297,104449,104450,-0.038766585290431976,-0.15498948097229004,0.8902755975723267,-3.4566762447357178,-10.655243873596191,-4.872565746307373,1.6139192581176758,2.4058797359466553,4.349782466888428,-1.5547268390655518,0.7655932903289795,-1.9713051319122314
298,104459,104460,-0.05210025981068611,-0.12045830488204956,0.9039694666862488,-1.3836371898651123,-8.252516746520996,-2.6727993488311768,1.6274186372756958,2.4193789958953857,4.351282119750977,-1.3897432088851929,0.7563555836677551,-2.0106422901153564
299,104469,104470,0.019220542162656784,0.018957028165459633,0.8797183632850647,1.9452012777328491,-8.222404479980469,-1.2370327711105347,1.6184190511703491,2.437378168106079,4.351282119750977,-1.5630723237991333,0.849113404750824,-2.0002963542938232
300,104479,104480,0.0015208517434075475,0.009930337779223919,0.9415563344955444,3.8879315853118896,-10.206075668334961,-1.216623067855835,1.6139192581176758,2.441877841949463,4.370781421661377,-1.412135124206543,0.8995470404624939,-1.9941638708114624
301,104489,104490,-0.01333660539239645,-0.014225628226995468,0.939490556716919,5.104879856109619,-17.07423973083496,-1.1185462474822998,1.6229188442230225,2.4508774280548096,4.376780986785889,-1.2122808694839478,0.8284620046615601,-2.051696538925171
302,104499,104500,-0.04019242897629738,-0.0806874930858612,0.9670956134796143,6.790217876434326,-28.723222732543945,-0.7286146879196167,1.6184190511703491,2.467376470565796,4.378281116485596,-1.444356918334961,0.9412304162979126,-2.068441390991211
303,104509,104510,-0.02176775597035885,-0.021861115470528603,0.9823188781738281,6.4855241775512695,-38.45744705200195,0.3912252187728882,1.6289185285568237,2.4808759689331055,4.3827805519104,-1.2562415599822998,0.9311965703964233,-2.1253411769866943
304,104519,104520,-0.030725615099072456,-0.020013630390167236,0.9903169274330139,3.6399154663085938,-46.10259246826172,1.6925225257873535,1.6184190511703491,2.494375228881836,4.387280464172363,-0.6218032240867615,1.1270273923873901,-2.0405490398406982
305,104529,104530,-0.036847785115242004,-0.024426661431789398,1.0173685550689697,-0.8365264534950256,-48.5997428894043,2.5027787685394287,1.6244187355041504,2.5003750324249268,4.396280288696289,-0.46326375007629395,1.114323377609253,-2.094252109527588
306,104539,104540,-0.06456723064184189,-0.018207335844635963,1.0372313261032104,-5.303360939025879,-42.2274055480957,5.253368854522705,1.6454176902770996,2.497375011444092,4.399280071258545,0.09019645303487778,1.091396450996399,-2.0746164321899414
307,104549,104550,-0.023463550955057144,-0.01293453574180603,1.0437922477722168,-10.600388526916504,-31.61193084716797,7.424833297729492,1.6289185285568237,2.4988749027252197,4.394780158996582,0.5328459739685059,1.00198233127594,-2.043379306793213
308,104559,104560,-0.034522198140621185,-0.0028361210133880377,1.0419493913650513,-15.665124893188477,-17.78508758544922,9.01897144317627,1.6259186267852783,2.5078744888305664,4.397779941558838,1.07650625705719,0.9027918577194214,-1.9393701553344727
309,104569,104570,-0.03137984126806259,-0.02361486479640007,1.0427250862121582,-18.979585647583008,-4.942609786987305,9.125638008117676,1.6439177989959717,2.4988749027252197,4.391780376434326,1.221999168395996,0.649761974811554,-1.8914713859558105
310,104579,104580,-0.02489519491791725,-0.00453502731397748,1.0649336576461792,-12.11366081237793,2.5500993728637695,10.772819519042969,1.619918942451477,2.489875555038452,4.3827805519104,1.1729435920715332,0.5170844197273254,-1.8018964529037476
311,104589,104590,-0.02574726939201355,-0.026004904881119728,1.0548182725906372,0.7270658612251282,5.991666793823242,11.723993301391602,1.6379181146621704,2.495875120162964,4.397779941558838,1.1003210544586182,0.4343527853488922,-1.693947434425354
312,104599,104600,-0.10179367661476135,-0.018386809155344963,1.1058067083358765,18.392913818359375,3.2790474891662598,14.528359413146973,1.6304184198379517,2.4763760566711426,4.390280246734619,1.0795888900756836,0.48447078466415405,-1.5604288578033447
313,104609,104610,-0.0635836124420166,-0.006709358189254999,1.060664415359497,34.601463317871094,-0.26028239727020264,19.48088264465332,1.6229188442230225,2.4748761653900146,4.400779724121094,1.0257831811904907,0.692190408706665,-1.4147453308105469
314,104619,104620,-0.11499829590320587,-0.06199134141206741,1.0555834770202637,34.35376739501953,-2.4752039909362793,24.869585037231445,1.636418104171753,2.4853756427764893,4.396280288696289,1.0766232013702393,1.1854265928268433,-1.190933346748352
315,104629,104630,-0.045105982571840286,-0.042500317096710205,1.0375856161117554,18.706186294555664,-11.467097282409668,26.842374801635742,1.6319184303283691,2.468876600265503,4.394780158996582,1.1712287664413452,1.4852335453033447,-0.941679060459137
316,104639,104640,-0.03271733596920967,-0.03752589598298073,1.069991946220398,0.5662540197372437,-25.2445068359375,25.531471252441406,1.636418104171753,2.46437668800354,4.387280464172363,1.4148027896881104,1.7374823093414307,-0.6485029458999634
317,104649,104650,-0.02860666997730732,-0.026927387341856956,1.0758602619171143,-23.065147399902344,-43.01551818847656,22.62788200378418,1.6454176902770996,2.4553771018981934,4.378281116485596,1.4801559448242188,1.5239763259887695,-0.4562135934829712
318,104659,104660,-0.02810826152563095,-0.012924987822771072,1.081202507019043,-52.643280029296875,-55.489009857177734,18.28821563720703,1.6409178972244263,2.468876600265503,4.376780986785889,2.253202438354492,1.1306641101837158,-0.17356638610363007
319,104669,104670,-0.10965441167354584,-0.06736449897289276,1.1159807443618774,-64.88877868652344,-60.847599029541016,12.51007080078125,1.6589170694351196,2.4598770141601562,4.376780986785889,2.4935426712036133,0.7443294525146484,-0.06625034660100937
320,104679,104680,-0.1254715621471405,-0.0392569936811924,1.1349871158599854,-63.662967681884766,-48.677337646484375,6.632939338684082,1.6604169607162476,2.46437668800354,4.384280681610107,3.1473701000213623,-0.09867368638515472,0.0770881175994873
321,104689,104690,-0.06032530218362808,0.005736615974456072,1.1180585622787476,-51.987144470214844,-26.350252151489258,-0.6593438982963562,1.6544172763824463,2.467376470565796,4.381280899047852,3.7568535804748535,-0.45359358191490173,0.14928841590881348
322,104699,104700,-0.057924170047044754,-0.04915972054004669,1.0960302352905273,-32.73952865600586,-2.011216402053833,-6.5537638664245605,1.6679165363311768,2.4448776245117188,4.370781421661377,4.13088846206665,-1.1889845132827759,0.2029087245464325
323,104709,104710,-0.04121878370642662,-0.026377737522125244,1.0629934072494507,-15.916850090026855,13.669764518737793,-10.50153923034668,1.6469175815582275,2.4508774280548096,4.3797807693481445,4.109476089477539,-1.4594920873641968,0.11832021176815033
324,104719,104720,-0.04517808184027672,0.015383753925561905,1.1317092180252075,0.5528378486633301,23.480220794677734,-13.882003784179688,1.6469175815582275,2.432878255844116,4.352782249450684,3.871890068054199,-1.602245569229126,-0.007032071240246296
325,104729,104730,-0.0418579988181591,-0.017175327986478806,1.137819528579712,7.4937663078308105,35.691715240478516,-18.654775619506836,1.6379181146621704,2.432878255844116,4.3557820320129395,3.751450538635254,-1.5001609325408936,-0.16933873295783997
326,104739,104740,-0.03247223049402237,-0.007712640333920717,1.056039810180664,9.05817699432373,40.006595611572266,-25.02491569519043,1.634918212890625,2.4268786907196045,4.364781856536865,3.1469011306762695,-1.365942120552063,-0.3928281366825104
327,104749,104750,0.00035245195613242686,0.046048976480960846,1.0340845584869385,14.075761795043945,36.08441925048828,-30.201873779296875,1.6439177989959717,2.4298784732818604,4.352782249450684,3.1284635066986084,-1.2063618898391724,-0.6505118012428284
328,104759,104760,0.005171490367501974,-0.018759816884994507,1.081819772720337,29.396535873413086,31.204212188720703,-35.70298767089844,1.6289185285568237,2.438878059387207,4.337782859802246,2.803255796432495,-1.0768797397613525,-0.9482904076576233
329,104769,104770,-0.03947586938738823,-0.11118939518928528,1.0261704921722412,39.64474868774414,28.37067985534668,-41.26461410522461,1.6274186372756958,2.446377754211426,4.348282337188721,2.333909749984741,-0.7068170309066772,-1.3330409526824951
330,104779,104780,-0.04331120103597641,-0.14154651761054993,0.9173774719238281,48.98049545288086,28.671417236328125,-44.300846099853516,1.6244187355041504,2.434378147125244,4.354282379150391,2.035177707672119,-0.16063688695430756,-1.7938504219055176
331,104789,104790,-0.05540630593895912,-0.07021241635084152,0.9633042812347412,51.4466667175293,35.47991180419922,-42.72087478637695,1.6154191493988037,2.440377950668335,4.351282119750977,2.2871761322021484,0.21377937495708466,-2.197154998779297
332,104799,104800,-0.06841964274644852,-0.10334639996290207,1.024150013923645,43.99435806274414,45.58682632446289,-40.303565979003906,1.6169191598892212,2.432878255844116,4.352782249450684,1.6284714937210083,0.8930137753486633,-2.6759939193725586
333,104809,104810,-0.032065119594335556,-0.11548800021409988,0.9760231375694275,44.98284149169922,48.828514099121094,-32.073486328125,1.6229188442230225,2.4508774280548096,4.352782249450684,1.2369155883789062,1.0634874105453491,-2.9618279933929443
334,104819,104820,0.0071282098069787025,-0.005884834099560976,0.9889769554138184,40.31735610961914,45.821556091308594,-26.523086547851562,1.6229188442230225,2.4238786697387695,4.364781856536865,0.7153177857398987,1.724534034729004,-3.3516039848327637
335,104829,104830,-0.009684705175459385,-0.003010672051459551,0.9474788308143616,28.9674072265625,43.59870910644531,-23.08189582824707,1.6214189529418945,2.407379627227783,4.348282337188721,0.4570654034614563,1.9752410650253296,-3.545511245727539
336,104839,104840,-0.09843797981739044,-0.09247005730867386,0.9613569378852844,10.590349197387695,29.420677185058594,-21.129262924194336,1.6244187355041504,2.3983800411224365,4.342282772064209,-0.23417750000953674,2.3806397914886475,-3.815142869949341
337,104849,104850,-0.09851635247468948,-0.08311159163713455,0.9645214676856995,-15.898123741149902,19.275249481201172,-21.698610305786133,1.61091947555542,2.4028797149658203,4.33478307723999,-0.3876279592514038,2.3788487911224365,-3.972947597503662
338,104859,104860,-0.0413043349981308,-0.07341533899307251,0.9043739438056946,-45.513702392578125,7.822371006011963,-23.92418098449707,1.6169191598892212,2.411879301071167,4.337782859802246,-0.3921107351779938,2.137807607650757,-4.1374359130859375
339,104869,104870,-0.012565172277390957,-0.007512075360864401,0.8291328549385071,-66.24462127685547,-4.1955742835998535,-26.35727310180664,1.6274186372756958,2.4223787784576416,4.3572821617126465,-0.5734785795211792,1.6618852615356445,-4.385959148406982
340,104879,104880,-0.028626641258597374,-0.0016426992369815707,0.9189937114715576,-73.53669738769531,-16.472721099853516,-27.004343032836914,1.6244187355041504,2.4313783645629883,4.342282772064209,-0.46412110328674316,0.8698855638504028,-4.618687629699707
341,104889,104890,-0.044655509293079376,-0.037876252084970474,0.9511736035346985,-59.89704132080078,-22.617040634155273,-26.837120056152344,1.619918942451477,2.4268786907196045,4.352782249450684,-0.23855853080749512,0.4063025414943695,-4.9082512855529785
342,104899,104900,-0.059962134808301926,0.03390572592616081,0.9382582306861877,-34.641292572021484,-21.804176330566406,-25.98276138305664,1.6304184198379517,2.437378168106079,4.351282119750977,0.07290855050086975,-0.16115377843379974,-5.164713382720947
343,104909,104910,-0.07460791617631912,-0.07923362404108047,0.9385946393013,-3.0501914024353027,-7.703670978546143,-22.613386154174805,1.6304184198379517,2.434378147125244,4.3572821617126465,0.31286779046058655,-0.3561325967311859,-5.430014133453369
344,104919,104920,-0.013071841560304165,-0.04059477895498276,0.9172619581222534,20.789121627807617,18.481590270996094,-19.433670043945312,1.619918942451477,2.4268786907196045,4.346782684326172,0.18706680834293365,-0.3312905430793762,-5.688652038574219
345,104929,104930,-0.01523330993950367,-0.08572836220264435,0.8589295148849487,30.270381927490234,52.003055572509766,-16.180843353271484,1.6169191598892212,2.4508774280548096,4.349782466888428,0.020586084574460983,-0.12272457778453827,-5.879986763000488
346,104939,104940,0.012382375076413155,-0.04492536932229996,0.9159181714057922,24.577430725097656,79.44591522216797,-14.205977439880371,1.604919672012329,2.462876796722412,4.367781639099121,-0.6628543138504028,0.24064339697360992,-6.062855243682861
347,104949,104950,0.032015230506658554,-0.05545122176408768,0.8974719643592834,12.00456428527832,95.10009002685547,-11.91580581665039,1.6019198894500732,2.468876600265503,4.373781204223633,-1.7591190338134766,0.41483670473098755,-6.232846736907959
348,104959,104960,0.044957779347896576,0.01648842543363571,0.8823635578155518,-8.973687171936035,93.1573486328125,-9.313631057739258,1.5989199876785278,2.4748761653900146,4.3797807693481445,-2.6404995918273926,0.4832412004470825,-6.3395915031433105
349,104969,104970,-0.06992726773023605,-0.04860682785511017,0.9612565040588379,-29.233489990234375,72.61308288574219,-6.279906749725342,1.6019198894500732,2.4808759689331055,4.370781421661377,-3.628819227218628,0.22330045700073242,-6.4546217918396
350,104979,104980,-0.056194011121988297,-0.05458120256662369,0.9734917283058167,-42.36530685424805,38.8698844909668,-0.981300413608551,1.5929203033447266,2.462876796722412,4.349782466888428,-4.10469913482666,-0.11977969855070114,-6.497312545776367
351,104989,104990,-0.08506085723638535,-0.028660735115408897,0.9873471260070801,-44.81003189086914,-0.724105954170227,3.9171669483184814,1.5884205102920532,2.461376905441284,4.363281726837158,-4.579603672027588,-0.70023512840271,-6.560522079467773
352,104999,105000,-0.025135137140750885,-0.005787707399576902,0.9984922409057617,-36.173370361328125,-31.954641342163086,8.551037788391113,1.6064196825027466,2.470376491546631,4.36928129196167,-4.267069339752197,-0.922028124332428,-6.422054290771484
353,105009,105010,-0.011257796548306942,0.0033273620065301657,1.0476328134536743,-23.675207138061523,-50.78134536743164,12.001840591430664,1.604919672012329,2.468876600265503,4.367781639099121,-3.771686553955078,-1.3612416982650757,-6.350520133972168
354,105019,105020,-0.05424410477280617,-0.07026725262403488,1.0099033117294312,-11.652497291564941,-53.808048248291016,15.539484977722168,1.6079195737838745,2.4808759689331055,4.3827805519104,-3.1991779804229736,-1.352911353111267,-6.116056442260742
355,105029,105030,-0.04370985925197601,-0.04367098584771156,0.9905259609222412,-1.0935348272323608,-44.40925216674805,18.010576248168945,1.619918942451477,2.4748761653900146,4.376780986785889,-2.7815921306610107,-1.4456698894500732,-5.945291042327881
356,105039,105040,-0.00023466379207093269,0.006932130083441734,1.0076444149017334,9.181853294372559,-30.593313217163086,19.624494552612305,1.6169191598892212,2.462876796722412,4.373781204223633,-2.526674270629883,-1.4398093223571777,-5.750609397888184
357,105049,105050,0.01010199636220932,-0.001390723162330687,0.9644480347633362,17.128671646118164,-16.091983795166016,19.610280990600586,1.61091947555542,2.441877841949463,4.358781814575195,-2.219745397567749,-1.2125037908554077,-5.486185550689697
358,105059,105060,0.043470874428749084,0.019049102440476418,1.0483872890472412,20.37043571472168,-3.839080333709717,17.99488639831543,1.604919672012329,2.462876796722412,4.364781856536865,-2.188124656677246,-0.9696419835090637,-5.246683597564697
359,105069,105070,-0.03466543182730675,-0.02841106988489628,0.9977745413780212,21.630264282226562,6.085340976715088,17.705781936645508,1.6004199981689453,2.461376905441284,4.372281074523926,-2.2006936073303223,-0.739068329334259,-5.053206920623779
360,105079,105080,-0.032187335193157196,0.05322128161787987,0.9908273816108704,18.535688400268555,9.965490341186523,19.139270782470703,1.6064196825027466,2.4553771018981934,4.363281726837158,-2.357370615005493,-0.42987677454948425,-4.82493782043457
361,105089,105090,0.02371153235435486,0.08440590649843216,1.0007383823394775,9.629834175109863,6.904875755310059,20.74068260192871,1.6094194650650024,2.461376905441284,4.366281509399414,-2.5196802616119385,-0.3541280925273895,-4.688547611236572
362,105099,105100,-0.047954801470041275,0.01763463392853737,1.0210217237472534,-2.7840676307678223,0.5428788661956787,23.02480697631836,1.6094194650650024,2.443377733230591,4.3572821617126465,-2.374768018722534,-0.4268451929092407,-4.589845180511475
363,105109,105110,-0.11767209321260452,-0.10567374527454376,1.0069386959075928,-15.245589256286621,-12.308362007141113,24.86469268798828,1.6184190511703491,2.437378168106079,4.348282337188721,-2.399653911590576,-0.5334407687187195,-4.4069013595581055
364,105119,105120,-0.11816906929016113,-0.12916415929794312,0.9661482572555542,-26.84516716003418,-24.630903244018555,24.723623275756836,1.6154191493988037,2.443377733230591,4.354282379150391,-2.3073019981384277,-0.7552637457847595,-4.2023138999938965
365,105129,105130,-0.10981467366218567,-0.04239287227392197,0.9845707416534424,-32.73808288574219,-32.8405876159668,25.22334861755371,1.6169191598892212,2.4478776454925537,4.367781639099121,-1.9777337312698364,-1.0011379718780518,-3.953960418701172
366,105139,105140,0.014655917882919312,0.01683633401989937,0.9572917819023132,-27.273542404174805,-33.36386489868164,25.951026916503906,1.6229188442230225,2.4568769931793213,4.361781597137451,-1.4551029205322266,-1.4401962757110596,-3.781965970993042
367,105149,105150,0.05415702238678932,0.06269682198762894,0.9197736382484436,-9.172653198242188,-27.20911979675293,27.915590286254883,1.6229188442230225,2.4538772106170654,4.358781814575195,-1.1959104537963867,-1.5279346704483032,-3.419079542160034
368,105159,105160,-0.059957489371299744,0.03202427923679352,1.0195986032485962,2.515825033187866,-22.527812957763672,27.753734588623047,1.6139192581176758,2.4598770141601562,4.358781814575195,-1.067474603652954,-1.6499817371368408,-3.135091543197632
369,105169,105170,-0.09350994974374771,-0.028414534404873848,1.0107966661453247,12.358983039855957,-17.421049118041992,25.68610382080078,1.6169191598892212,2.4448776245117188,4.364781856536865,-0.8592814803123474,-1.5673879384994507,-2.8272178173065186
370,105179,105180,-0.0539470911026001,-0.023051761090755463,0.979887068271637,13.884910583496094,-14.505016326904297,20.275699615478516,1.6229188442230225,2.4448776245117188,4.364781856536865,-0.8846179246902466,-1.3590304851531982,-2.504777431488037
371,105189,105190,0.0017935362411662936,0.00927447248250246,0.9425653219223022,6.768276214599609,-13.36447811126709,12.975957870483398,1.6169191598892212,2.4478776454925537,4.361781597137451,-0.6465051770210266,-1.1736152172088623,-2.295876979827881
372,105199,105200,0.002774476306512952,-0.029897741973400116,0.971459686756134,0.7144155502319336,-12.526955604553223,6.062727928161621,1.619918942451477,2.4448776245117188,4.358781814575195,-0.4845704734325409,-1.1129801273345947,-2.1726694107055664
373,105209,105210,-0.02179584465920925,-0.11325506865978241,0.9959783554077148,-0.009006804786622524,-12.374180793762207,0.4815172255039215,1.6244187355041504,2.4493775367736816,4.354282379150391,-0.26875635981559753,-1.1846832036972046,-2.159778594970703
374,105219,105220,-0.04735549911856651,-0.14076147973537445,0.9835315942764282,2.282707929611206,-12.929912567138672,-2.577275276184082,1.6259186267852783,2.4538772106170654,4.370781421661377,-0.09670469909906387,-1.1798210144042969,-2.163069486618042
375,105229,105230,-0.027417421340942383,-0.05755656585097313,0.9106789231300354,12.74676513671875,-12.814647674560547,-3.7459471225738525,1.6244187355041504,2.443377733230591,4.36928129196167,0.013808497227728367,-1.2447247505187988,-2.2193307876586914
376,105239,105240,-0.06809709966182709,-0.010014715604484081,0.9562264680862427,26.1199951171875,-11.148221969604492,-3.3327178955078125,1.6259186267852783,2.4748761653900146,4.364781856536865,0.13164903223514557,-1.056459665298462,-2.234226942062378
377,105249,105250,-0.09824637323617935,0.00259346142411232,1.05025315284729,40.63467788696289,-6.6182074546813965,-1.4323090314865112,1.6184190511703491,2.470376491546631,4.381280899047852,0.3061775267124176,-0.7864439487457275,-2.2749810218811035
378,105259,105260,-0.10210786014795303,-0.046684715896844864,1.045511245727539,58.00912857055664,-2.919548511505127,2.2459919452667236,1.6184190511703491,2.488375425338745,4.378281116485596,0.1908368170261383,-0.33505991101264954,-2.2418057918548584
379,105269,105270,0.004637378733605146,0.014607073739171028,0.9703657627105713,66.48638153076172,1.0110667943954468,4.751918792724609,1.6124193668365479,2.4823758602142334,4.381280899047852,0.2042466253042221,0.37368401885032654,-2.1869800090789795
380,105279,105280,0.0291427131742239,0.0674651488661766,0.9694727063179016,61.43268966674805,2.5644609928131104,5.59925651550293,1.6229188442230225,2.468876600265503,4.391780376434326,0.22992371022701263,0.9354285001754761,-2.168058395385742
381,105289,105290,0.018227718770503998,0.05995624139904976,0.9800893068313599,38.4315185546875,3.6818482875823975,6.208086967468262,1.6259186267852783,2.4448776245117188,4.3827805519104,0.16098998486995697,1.416090488433838,-2.1271936893463135
382,105299,105300,-0.002527444390580058,0.032508209347724915,1.0063315629959106,5.789378643035889,0.2848382294178009,6.548930644989014,1.6274186372756958,2.4553771018981934,4.366281509399414,0.1277507245540619,1.6262484788894653,-2.090555429458618
383,105309,105310,-0.007659153547137976,0.015616885386407375,0.9811609983444214,-31.39617347717285,-4.266499996185303,6.733663082122803,1.6244187355041504,2.461376905441284,4.366281509399414,0.16369792819023132,1.576460838317871,-2.0395002365112305
384,105319,105320,-0.04098787531256676,-0.017848758026957512,0.9650906324386597,-62.34421157836914,-7.6190104484558105,6.550768852233887,1.6289185285568237,2.468876600265503,4.373781204223633,0.2545495331287384,1.2148724794387817,-1.9783918857574463
385,105329,105330,-0.03145509213209152,-0.04313754662871361,0.9374696016311646,-76.32955169677734,-10.46007251739502,6.905341148376465,1.6259186267852783,2.489875555038452,4.373781204223633,0.4027564525604248,0.43766164779663086,-1.9302833080291748
386,105339,105340,-0.015978656709194183,0.07769885659217834,0.9832578301429749,-76.97454071044922,-10.723396301269531,6.935164451599121,1.6319184303283691,2.4988749027252197,4.391780376434326,0.5860270261764526,-0.09715227782726288,-1.8369255065917969
387,105349,105350,-0.035293228924274445,0.009358626790344715,0.9792348742485046,-59.88642883300781,-11.38300609588623,7.886727333068848,1.6394180059432983,2.4823758602142334,4.384280681610107,0.7522551417350769,-0.926449179649353,-1.7704541683197021
388,105359,105360,-0.0728825107216835,-0.07313063740730286,0.9764324426651001,-31.04927635192871,-16.355335235595703,10.16339111328125,1.6304184198379517,2.470376491546631,4.37528133392334,0.8086378574371338,-1.278658151626587,-1.6773319244384766
389,105369,105370,-0.06756274402141571,-0.032902635633945465,0.9677333235740662,3.196363687515259,-16.45166778564453,13.626487731933594,1.633418321609497,2.46437668800354,4.372281074523926,1.0664896965026855,-1.5594046115875244,-1.56865394115448
390,105379,105380,-0.02729857712984085,0.06863778084516525,0.9779751896858215,40.762630462646484,-9.732494354248047,18.73331642150879,1.6319184303283691,2.465876579284668,4.370781421661377,1.143231987953186,-1.3613665103912354,-1.4230111837387085
391,105389,105390,-0.05249645933508873,-0.01280204951763153,1.0137747526168823,67.79785919189453,-7.093406677246094,22.08397674560547,1.6379181146621704,2.495875120162964,4.370781421661377,1.2878950834274292,-1.0161404609680176,-1.2333046197891235
392,105399,105400,-0.029788771644234657,-0.025934414938092232,0.9694745540618896,72.28337860107422,-7.462255954742432,24.826948165893555,1.6229188442230225,2.492875337600708,4.3857808113098145,1.3806015253067017,-0.23537348210811615,-1.016527771949768
393,105409,105410,-0.039880990982055664,0.002865290967747569,0.9242701530456543,56.5776252746582,-8.217414855957031,28.01603126525879,1.6274186372756958,2.4853756427764893,4.36928129196167,1.473225474357605,0.45770829916000366,-0.7667585611343384
394,105419,105420,-0.011505424045026302,0.0039597684517502785,0.9198318719863892,25.798192977905273,-5.79106330871582,31.673065185546875,1.6319184303283691,2.4598770141601562,4.367781639099121,1.4738199710845947,0.9595495462417603,-0.4788792133331299
395,105429,105430,-0.0394742414355278,-0.010313540697097778,0.9213500022888184,-7.185664176940918,0.12611396610736847,33.09372329711914,1.6274186372756958,2.4493775367736816,4.3572821617126465,1.5250999927520752,1.090977430343628,-0.15115462243556976
396,105439,105440,-0.03565215691924095,0.0057116057723760605,0.9603455066680908,-31.747896194458008,11.233150482177734,34.000030517578125,1.6289185285568237,2.4568769931793213,4.373781204223633,1.4773975610733032,1.0371779203414917,0.17687609791755676
397,105449,105450,-0.008200704120099545,0.06354431807994843,0.9923266768455505,-44.908668518066406,27.84994125366211,34.966041564941406,1.633418321609497,2.4793760776519775,4.378281116485596,1.5229984521865845,0.6235077977180481,0.537627100944519
398,105459,105460,0.033600132912397385,0.013942783698439598,0.9887086749076843,-51.24007034301758,40.09068298339844,37.60329055786133,1.6274186372756958,2.5033748149871826,4.381280899047852,1.0301988124847412,-0.1284511387348175,0.9308831095695496
399,105469,105470,0.016710592433810234,0.033377766609191895,1.0119342803955078,-48.14241409301758,49.98965072631836,39.52474594116211,1.634918212890625,2.5138742923736572,4.394780158996582,0.6928792595863342,-0.5070915818214417,1.2790762186050415
400,105479,105480,-0.01649157889187336,-0.007958928123116493,1.0466768741607666,-30.813501358032227,56.88248062133789,40.43952178955078,1.633418321609497,2.5093743801116943,4.390280246734619,-0.025018103420734406,-0.9501641988754272,1.6511839628219604
401,105489,105490,-0.020606663078069687,0.10230664163827896,1.0635496377944946,-9.387694358825684,55.22765350341797,40.20884323120117,1.6214189529418945,2.5033748149871826,4.381280899047852,-0.18856419622898102,-1.2489519119262695,2.046647787094116
402,105499,105500,0.015807468444108963,0.10919300466775894,1.046762466430664,6.2811360359191895,41.1328239440918,36.5726203918457,1.6214189529418945,2.4823758602142334,4.381280899047852,-0.9752756357192993,-1.2320845127105713,2.4158823490142822
403,105509,105510,0.052391521632671356,0.06777998059988022,1.0334619283676147,11.908292770385742,20.473602294921875,32.45309829711914,1.6154191493988037,2.4733762741088867,4.372281074523926,-1.0280617475509644,-1.2472296953201294,2.776883125305176
404,105519,105520,0.04747847095131874,-0.05602157488465309,1.0195053815841675,7.682557106018066,-8.74602222442627,27.107877731323242,1.6289185285568237,2.465876579284668,4.358781814575195,-1.3252161741256714,-1.1103291511535645,3.101041793823242
405,105529,105530,-0.04906400293111801,-0.08461663872003555,1.0143136978149414,-11.573640823364258,-40.36713409423828,21.277809143066406,1.619918942451477,2.462876796722412,4.373781204223633,-1.1774859428405762,-1.0585429668426514,3.3761162757873535
406,105539,105540,-0.08106450736522675,-0.07166114449501038,1.0026651620864868,-27.893184661865234,-62.53887176513672,12.499397277832031,1.6259186267852783,2.4808759689331055,4.370781421661377,-0.6589508056640625,-1.2348767518997192,3.5951168537139893
407,105549,105550,-0.0616232268512249,0.008357048965990543,1.0197513103485107,-34.912628173828125,-61.293209075927734,3.674288034439087,1.6289185285568237,2.4778759479522705,4.364781856536865,-0.17503511905670166,-1.453707218170166,3.751016855239868
408,105559,105560,-0.09025213867425919,0.022819621488451958,1.035463809967041,-31.51999282836914,-37.01063919067383,-5.6399335861206055,1.6439177989959717,2.4748761653900146,4.376780986785889,0.5266016125679016,-1.7787684202194214,3.8077926635742188
409,105569,105570,-0.09711248427629471,0.054088082164525986,1.063671588897705,-20.365249633789062,-9.029186248779297,-16.09855079650879,1.6379181146621704,2.465876579284668,4.3827805519104,0.7701867818832397,-2.182208299636841,3.7960076332092285
410,105579,105580,-0.1023431345820427,0.03546595945954323,1.0868669748306274,3.736215829849243,13.759814262390137,-24.811847686767578,1.633418321609497,2.4763760566711426,4.37528133392334,0.8907910585403442,-2.3569202423095703,3.6531128883361816
411,105589,105590,-0.14134366810321808,-0.027839085087180138,1.0901267528533936,22.257761001586914,38.0849494934082,-31.832738876342773,1.6304184198379517,2.4733762741088867,4.360281944274902,0.9682784080505371,-2.3012194633483887,3.3827078342437744
412,105599,105600,-0.10945253074169159,-0.02441803179681301,1.0650935173034668,41.80507278442383,58.62393569946289,-37.87662887573242,1.6169191598892212,2.4778759479522705,4.373781204223633,0.3362777829170227,-1.9353371858596802,3.1000959873199463
413,105609,105610,-0.04105226323008537,0.00352227664552629,1.0323097705841064,59.363773345947266,66.07460021972656,-43.13185501098633,1.6319184303283691,2.495875120162964,4.3827805519104,-0.032107628881931305,-1.554028034210205,2.675344705581665
414,105619,105620,-0.021384725347161293,0.06503888219594955,1.0539953708648682,78.32962799072266,50.89860153198242,-44.94778060913086,1.6214189529418945,2.49137544631958,4.393280029296875,-1.0612819194793701,-0.8153244256973267,2.306368827819824
415,105629,105630,-0.032032452523708344,0.015723533928394318,1.075953483581543,94.94276428222656,26.18151092529297,-42.170936584472656,1.6214189529418945,2.4853756427764893,4.396280288696289,-1.1764582395553589,-0.21654874086380005,1.7743830680847168
416,105639,105640,0.0010071698343381286,-0.07422713190317154,1.0644211769104004,98.32931518554688,1.4117223024368286,-36.06092834472656,1.6139192581176758,2.4808759689331055,4.412779331207275,-1.6331526041030884,0.9228190183639526,1.3771178722381592
417,105649,105650,-0.036484282463788986,-0.04574691504240036,1.113275408744812,82.56208038330078,-19.003786087036133,-28.4329833984375,1.604919672012329,2.468876600265503,4.3857808113098145,-1.5962879657745361,1.7049142122268677,0.997279942035675
418,105659,105660,-0.06771060824394226,-0.05591893196105957,1.0947902202606201,49.53237533569336,-34.9630126953125,-20.33661460876465,1.61091947555542,2.4598770141601562,4.376780986785889,-1.3017839193344116,2.634687662124634,0.6927431225776672
419,105669,105670,-0.010016683489084244,-0.062138497829437256,1.0540786981582642,3.6841354370117188,-40.504234313964844,-13.251011848449707,1.6139192581176758,2.435878276824951,4.364781856536865,-1.0188847780227661,3.0165650844573975,0.4627246856689453
420,105679,105680,-0.03722978010773659,-0.011153035797178745,1.0807924270629883,-43.30897903442383,-37.131832122802734,-11.51311206817627,1.6214189529418945,2.437378168106079,4.3572821617126465,-0.5781557559967041,2.8920741081237793,0.2930048406124115
421,105689,105690,-0.05725614354014397,-0.019376622512936592,1.096778154373169,-70.70654296875,-24.538057327270508,-13.936450004577637,1.6319184303283691,2.441877841949463,4.367781639099121,-0.13216368854045868,2.4257965087890625,0.16025379300117493
422,105699,105700,-0.0824541300535202,-0.025020655244588852,1.1109691858291626,-73.68302154541016,-2.3308897018432617,-14.803339004516602,1.6244187355041504,2.467376470565796,4.381280899047852,-0.06591736525297165,1.5076249837875366,-0.01649654097855091
423,105709,105710,-0.08070006966590881,-0.01628752425312996,1.1336053609848022,-52.67799758911133,24.451799392700195,-11.574817657470703,1.6274186372756958,2.4493775367736816,4.36928129196167,0.0017321615014225245,1.0283927917480469,-0.14375367760658264
424,105719,105720,-0.06276952475309372,-0.022252963855862617,1.115249752998352,-11.709634780883789,46.85586929321289,-8.541682243347168,1.6154191493988037,2.4313783645629883,4.354282379150391,-0.42622098326683044,0.5865057110786438,-0.28190162777900696
425,105729,105730,-0.061618294566869736,-0.025954458862543106,1.063556432723999,29.254419326782227,58.628509521484375,-6.571044921875,1.604919672012329,2.4028797149658203,4.346782684326172,-0.6983209848403931,0.5228864550590515,-0.3320156931877136
426,105739,105740,-0.0537722110748291,-0.04338651895523071,1.0196853876113892,56.3664436340332,58.9495964050293,-5.630204200744629,1.6034197807312012,2.413379192352295,4.348282337188721,-1.2809462547302246,1.0048942565917969,-0.37685588002204895
427,105749,105750,-0.05470013990998268,-0.0416950061917305,0.9937219619750977,68.94945526123047,52.42513656616211,-6.20916748046875,1.604919672012329,2.3908803462982178,4.349782466888428,-1.7076390981674194,1.523949384689331,-0.39792871475219727
428,105759,105760,-0.04865463078022003,-0.05672759562730789,0.9615959525108337,59.5188102722168,45.37296676635742,-8.47363567352295,1.6004199981689453,2.38938045501709,4.333283424377441,-2.3888962268829346,2.257510185241699,-0.46000370383262634
429,105769,105770,-0.04092620313167572,-0.05910884216427803,0.9192331433296204,27.628751754760742,33.983158111572266,-9.349661827087402,1.595920205116272,2.3728814125061035,4.322783946990967,-2.5865097045898438,2.6371612548828125,-0.5059293508529663
430,105779,105780,-0.0336296372115612,-0.041529323905706406,0.904697060585022,-13.993912696838379,15.106250762939453,-8.35362434387207,1.61091947555542,2.357882022857666,4.307784557342529,-3.1349899768829346,3.0084805488586426,-0.6149376630783081
431,105789,105790,-0.03889160975813866,-0.04604880511760712,0.9005478620529175,-45.43155288696289,1.7905709743499756,-6.358978748321533,1.6019198894500732,2.3758811950683594,4.313784122467041,-3.244581937789917,2.8352365493774414,-0.6915178894996643
432,105799,105800,-0.05906129628419876,0.023938728496432304,0.9466643929481506,-62.291648864746094,-10.079519271850586,-5.783815860748291,1.6124193668365479,2.380380868911743,4.333283424377441,-3.2837085723876953,2.269674777984619,-0.7949720025062561
433,105809,105810,-0.03669246286153793,-0.023036951199173927,0.9083938598632812,-69.3451919555664,-18.102582931518555,-5.02858304977417,1.6064196825027466,2.4043798446655273,4.333283424377441,-3.120062828063965,1.7932767868041992,-0.7927609086036682
434,105819,105820,-0.022573193535208702,-0.025282204151153564,0.9127482175827026,-67.27283477783203,-17.938413619995117,-2.9675967693328857,1.6094194650650024,2.3923802375793457,4.3272833824157715,-2.858661651611328,1.010539174079895,-0.8510175943374634
435,105829,105830,-0.06193729117512703,-0.09974958747625351,0.8842906355857849,-57.122398376464844,-13.214278221130371,0.9207503795623779,1.6094194650650024,2.407379627227783,4.333283424377441,-2.62707781791687,0.361714243888855,-0.8583592176437378
436,105839,105840,-0.03134530410170555,-0.028452008962631226,0.8502986431121826,-43.76169204711914,-6.921578407287598,4.3072733879089355,1.5944201946258545,2.4043798446655273,4.3302836418151855,-2.4802792072296143,-0.27410683035850525,-0.8704403042793274
437,105849,105850,-0.021350080147385597,-0.012864330783486366,0.8982300162315369,-25.341827392578125,-4.243380069732666,7.0728583335876465,1.6139192581176758,2.3998799324035645,4.319784164428711,-2.401728868484497,-0.47681596875190735,-0.7331939935684204
438,105859,105860,-0.0340094119310379,-0.03800932317972183,0.8611580729484558,-2.3558645248413086,1.6183444261550903,10.173069953918457,1.6154191493988037,2.3923802375793457,4.315284252166748,-2.3906548023223877,-0.6549268364906311,-0.6362611651420593
439,105869,105870,-0.010519788600504398,-0.019916145130991936,0.8411637544631958,15.132488250732422,7.300285339355469,12.295744895935059,1.6004199981689453,2.3983800411224365,4.342282772064209,-2.4589970111846924,-0.7010251879692078,-0.5503690838813782
440,105879,105880,-0.03283730149269104,-0.06198187917470932,0.892045795917511,28.23332405090332,9.819711685180664,12.561830520629883,1.6034197807312012,2.4283785820007324,4.3302836418151855,-2.5947070121765137,-0.45740020275115967,-0.4007873237133026
441,105889,105890,-0.04519546031951904,-0.09994959831237793,0.8799359798431396,32.506649017333984,10.202226638793945,12.15963363647461,1.6004199981689453,2.4043798446655273,4.342282772064209,-2.7146084308624268,-0.2212458699941635,-0.297650009393692
442,105899,105900,-0.012190226465463638,-0.05049138888716698,0.8597925901412964,25.166833877563477,6.649981498718262,11.130144119262695,1.5974200963974,2.413379192352295,4.339282989501953,-2.9171602725982666,-0.008412819355726242,-0.24265243113040924
443,105909,105910,-0.011152277700603008,-0.026952041313052177,0.8853798508644104,6.069609642028809,-3.397899627685547,9.057766914367676,1.6064196825027466,2.4223787784576416,4.339282989501953,-2.938498020172119,0.2569568455219269,-0.1215796023607254
444,105919,105920,0.03159205615520477,0.0017914107302203774,0.928581714630127,-14.234203338623047,-16.300628662109375,5.280587673187256,1.6019198894500732,2.411879301071167,4.343782901763916,-2.867300510406494,0.2880867123603821,-0.04796509072184563
445,105929,105930,0.06478235125541687,-0.0035105065908282995,0.9969102144241333,-25.80449676513672,-27.558879852294922,1.5643632411956787,1.6019198894500732,2.411879301071167,4.343782901763916,-2.7157340049743652,0.2328464388847351,0.03797537460923195
446,105939,105940,-0.02398424595594406,-0.01883605122566223,0.9518857598304749,-27.998825073242188,-33.10002517700195,-1.5976444482803345,1.6229188442230225,2.4238786697387695,4.3557820320129395,-2.454791784286499,-0.1462114155292511,-0.00840028002858162
447,105949,105950,-0.041461337357759476,-0.037074118852615356,0.926209032535553,-23.019908905029297,-32.294944763183594,-3.7635226249694824,1.6034197807312012,2.446377754211426,4.366281509399414,-2.198899745941162,-0.3272548317909241,0.01740504615008831
448,105959,105960,-0.05100579559803009,-0.03859977051615715,0.9329855442047119,-10.34896183013916,-24.471479415893555,-5.9114885330200195,1.6124193668365479,2.440377950668335,4.354282379150391,-1.7543418407440186,-0.6283164024353027,-0.03387048840522766
449,105969,105970,0.000643231556750834,-0.02185855805873871,0.9656404852867126,5.89835262298584,-11.194976806640625,-7.351406574249268,1.6124193668365479,2.440377950668335,4.354282379150391,-1.4337525367736816,-0.7158661484718323,-0.0679909884929657
450,105979,105980,-0.013579102233052254,-0.013594040647149086,0.9620468616485596,20.76205825805664,4.964728832244873,-8.031335830688477,1.604919672012329,2.4478776454925537,4.361781597137451,-1.5639212131500244,-0.6016022562980652,-0.1260593980550766
451,105989,105990,-0.008837444707751274,-0.051775649189949036,0.9237990975379944,29.782629013061523,20.46986961364746,-9.260920524597168,1.6064196825027466,2.4493775367736816,4.366281509399414,-1.735503911972046,-0.3396231234073639,-0.18357551097869873
452,105999,106000,0.09197454154491425,-0.029749443754553795,0.9358057975769043,30.821758270263672,29.001571655273438,-9.709041595458984,1.5989199876785278,2.4448776245117188,4.3557820320129395,-1.9261283874511719,-0.10717976093292236,-0.297881543636322
453,106009,106010,0.056883279234170914,-0.012053594924509525,0.9793646931648254,25.62395668029785,26.35481071472168,-9.23459529876709,1.5944201946258545,2.4553771018981934,4.351282119750977,-2.361915349960327,0.2785664200782776,-0.36501404643058777
454,106019,106020,0.04193149507045746,-0.01242073718458414,1.0297842025756836,12.486455917358398,13.81125545501709,-7.8322672843933105,1.6034197807312012,2.4553771018981934,4.37528133392334,-2.5082790851593018,0.489349901676178,-0.4708956182003021
455,106029,106030,0.004133087582886219,-0.024633878841996193,0.9450901746749878,-5.210888862609863,-0.5468449592590332,-6.042684078216553,1.5929203033447266,2.438878059387207,4.358781814575195,-2.6512022018432617,0.6149414777755737,-0.5489420890808105
456,106039,106040,-0.11312732100486755,-0.11959602683782578,0.8900401592254639,-19.49933624267578,-16.572463989257812,-4.532587051391602,1.6064196825027466,2.4313783645629883,4.360281944274902,-2.55338191986084,0.48995617032051086,-0.6452928185462952
457,106049,106050,-0.12063664197921753,-0.02917044796049595,0.9429991245269775,-31.469398498535156,-33.0041389465332,-3.931246757507324,1.5989199876785278,2.4268786907196045,4.361781597137451,-2.3387186527252197,0.21252048015594482,-0.7353612780570984
458,106059,106060,-0.012793364934623241,-0.031654782593250275,0.9338837265968323,-37.98436737060547,-46.790348052978516,-4.299910545349121,1.6094194650650024,2.434378147125244,4.351282119750977,-2.0088515281677246,-0.26101359724998474,-0.8452624082565308
459,106069,106070,-0.019588153809309006,-0.041603296995162964,0.9260205626487732,-36.90901184082031,-50.9815788269043,-4.266424655914307,1.6154191493988037,2.443377733230591,4.354282379150391,-1.480124592781067,-0.46120667457580566,-0.8100569248199463
460,106079,106080,-0.006610529962927103,0.04774731025099754,0.932020902633667,-27.43787956237793,-45.38823318481445,-5.019688129425049,1.61091947555542,2.4598770141601562,4.358781814575195,-1.179567575454712,-0.7879565358161926,-0.8352091312408447
461,106089,106090,-0.019917963072657585,-0.004356888122856617,0.9618586301803589,-13.953878402709961,-35.66201400756836,-4.225677967071533,1.61091947555542,2.462876796722412,4.358781814575195,-0.7531915903091431,-1.1511396169662476,-0.904857873916626
462,106099,106100,-0.019717954099178314,-0.01991931162774563,0.9797919392585754,1.4654279947280884,-25.36029624938965,-2.835033655166626,1.6139192581176758,2.441877841949463,4.361781597137451,-0.35065606236457825,-1.1404356956481934,-0.8880580067634583
463,106109,106110,-0.04472086951136589,-0.03943343833088875,0.9740791916847229,18.119853973388672,-11.412468910217285,-1.2650940418243408,1.6214189529418945,2.440377950668335,4.3572821617126465,-0.1378910094499588,-1.164298176765442,-0.9200584292411804
464,106119,106120,0.04159018024802208,-0.01869579590857029,0.9495407938957214,28.41287612915039,1.2405608892440796,0.2713264226913452,1.6139192581176758,2.435878276824951,4.376780986785889,-0.28077998757362366,-0.9485785365104675,-0.9062460064888
465,106129,106130,-0.010632595047354698,-0.036996323615312576,0.9499782919883728,31.621614456176758,10.1072359085083,0.8358635306358337,1.6214189529418945,2.4493775367736816,4.378281116485596,-0.2508065104484558,-0.5007880330085754,-0.867466926574707
466,106139,106140,-0.059652119874954224,-0.06044801324605942,0.9652388691902161,22.9586124420166,15.359366416931152,0.32076138257980347,1.61091947555542,2.462876796722412,4.3797807693481445,-0.43785569071769714,-0.3076069951057434,-0.8776683807373047
467,106149,106150,-0.05518915504217148,-0.08071495592594147,0.9180922508239746,6.786238670349121,14.846354484558105,-0.19177573919296265,1.6064196825027466,2.46437668800354,4.381280899047852,-0.6376225352287292,0.020596113055944443,-0.8562912940979004
468,106159,106160,0.049703843891620636,-0.07574467360973358,0.8998381495475769,-9.742879867553711,5.51556396484375,-0.7897143959999084,1.6274186372756958,2.4523773193359375,4.366281509399414,-0.8143026828765869,0.0006599627668038011,-0.8742938041687012
469,106169,106170,0.12953609228134155,-0.003876898903399706,0.9248788356781006,-22.075178146362305,-11.251630783081055,-0.9141548871994019,1.619918942451477,2.4478776454925537,4.367781639099121,-0.8862258791923523,-0.20381392538547516,-0.8995264768600464
470,106179,106180,0.097427137196064,0.07888256758451462,0.9952127933502197,-26.6468563079834,-28.994670867919922,-1.3544939756393433,1.6169191598892212,2.4568769931793213,4.3797807693481445,-0.8059225082397461,-0.5148850083351135,-0.9211720824241638
471,106189,106190,0.11157871782779694,0.04156181588768959,0.9756182432174683,-22.433551788330078,-42.081932067871094,-1.3343080282211304,1.636418104171753,2.461376905441284,4.366281509399414,-0.4239480495452881,-0.9462975859642029,-0.9579554200172424
472,106199,106200,0.08922454714775085,0.013379772193729877,0.9455452561378479,-11.406394958496094,-48.22499465942383,-0.503774106502533,1.636418104171753,2.4763760566711426,4.366281509399414,-0.258425772190094,-0.9304038286209106,-0.9196100831031799
473,106209,106210,-0.018434785306453705,-0.015989067032933235,0.9937294125556946,3.0330324172973633,-43.40549087524414,0.4121156632900238,1.636418104171753,2.49137544631958,4.381280899047852,0.5585073232650757,-1.0845519304275513,-0.9495719075202942
474,106219,106220,0.001065027085132897,-0.02061607874929905,1.0247236490249634,12.010354042053223,-31.740875244140625,2.5660104751586914,1.6409178972244263,2.4778759479522705,4.38878059387207,0.7023848295211792,-1.0215271711349487,-0.9046517610549927
475,106229,106230,-0.06918890029191971,-0.03401810675859451,1.0155704021453857,15.282225608825684,-14.9371337890625,4.238310813903809,1.6289185285568237,2.4808759689331055,4.391780376434326,0.936748206615448,-0.6770422458648682,-0.8619855642318726
476,106239,106240,0.02176334150135517,-0.034895434975624084,0.9777288436889648,13.102352142333984,-0.043529924005270004,5.447436332702637,1.6379181146621704,2.4988749027252197,4.391780376434326,1.2459551095962524,-0.6618471145629883,-0.8316299915313721
477,106249,106250,-0.02135881781578064,-0.031003648415207863,0.9921936392784119,4.533945083618164,7.637753486633301,6.328897476196289,1.636418104171753,2.4823758602142334,4.387280464172363,1.2463020086288452,-0.486139714717865,-0.7814550399780273
478,106259,106260,0.08798068761825562,0.035689577460289,0.9700087904930115,-5.5208659172058105,8.104226112365723,7.044502258300781,1.633418321609497,2.4823758602142334,4.390280246734619,1.1329630613327026,-0.4538207948207855,-0.7136659622192383
